word,percent_known,freq,trial_order,rt,accuracy
que,98.83721,28628.87898,3,857,1.0
los,99.00662252,17235.71531,42,618,1.0
del,96.85628743,13085.31264,24,795,1.0
las,97.08171206,10957.88118,42,662,1.0
por,99.11243,10606.97919,54,875,1.0
con,98.68766404,9362.625186,68,576,1.0
una,99.79839,8685.849424,59,655,1.0
para,99.68847,6823.672288,78,746,1.0
como,98.57142857,5231.438007,97,762,1.0
más,98.49785,4209.352045000001,51,652,1.0
sus,88.95522,2998.288863,58,785,1.0
este,99.66777409,2290.402464,68,735,1.0
también,100.0,2047.460068,84,599,1.0
entre,98.80478088,1895.55893,84,727,1.0
sin,98.8024,1834.650314,2,748,1.0
ser,99.59267,1653.386584,20,728,1.0
son,95.12195,1564.0901199999996,10,957,1.0
cuando,99.60861057,1466.414092,77,759,1.0
dos,99.6350365,1433.951807,96,766,1.0
todo,99.31271,1380.8216619999996,31,563,1.0
desde,99.04153355,1274.437905,46,1914,1.0
muy,98.44237,1260.846699,94,595,1.0
hasta,99.10979228,1257.711267,6,930,1.0
parte,99.34641,1151.827879,33,1372,1.0
donde,99.62121212,929.280414,16,707,1.0
vez,99.29078,915.845168,18,543,1.0
gran,98.22134387,914.425288,87,801,1.0
presidente,98.5348,912.261353,24,562,1.0
porque,99.31973,883.519348,62,1468,1.0
después,100.0,883.467361,76,589,1.0
mismo,99.0,882.6095849999998,19,691,1.0
sólo,97.56944,870.594218,97,1324,1.0
uno,99.69231,868.202842,45,1272,1.0
qué,98.94366,825.063842,36,638,1.0
señor,99.60784,809.052017,1,2244,1.0
tiempo,99.76959,807.570404,37,779,1.0
contra,99.32432432,795.902696,73,602,1.0
comisión,99.62894249,777.548233,32,672,1.0
tanto,99.57717,765.2761830000002,77,689,1.0
bien,99.57264957,761.341459,21,718,1.0
nos,95.12894,755.684684,95,914,1.0
aunque,96.996997,744.845511,57,3630,1.0
cada,97.54768392,732.138075,53,598,1.0
así,99.65986395,731.683193,35,990,1.0
esto,98.04560261,729.005891,87,704,1.0
país,98.62069,727.858941,7,706,1.0
vida,99.4152,726.611266,98,619,1.0
año,99.67532468,724.392095,10,922,1.0
gobierno,99.82486865,717.6858440000002,78,487,1.0
estado,99.43019943,713.007064,73,627,1.0
tan,94.60227,709.6279450000002,12,782,1.0
forma,99.06015038,707.7694290000002,26,496,1.0
mayor,99.5889,687.013842,83,859,1.0
hoy,99.66666667,682.5462570000002,64,641,1.0
mundo,99.57895,680.967169,10,524,1.0
otro,99.38272,673.406391,50,613,1.0
tres,99.09366,667.2752389999998,65,494,1.0
ciudad,99.41860465,657.553775,13,666,1.0
lugar,99.80544747,653.869235,80,493,1.0
primera,99.5549,652.9919639999998,24,742,1.0
ahora,99.63898917,625.725075,57,504,1.0
hacer,99.30915371,620.779864,75,567,1.0
primer,98.97611,618.196788,31,864,1.0
antes,99.55156951,616.0978349999998,86,937,1.0
según,99.32886,612.5140200000002,56,1027,1.0
otra,99.29329,606.496589,72,591,1.0
grupo,99.63898917,606.366623,33,495,1.0
hecho,100.0,591.349039,28,1663,1.0
general,99.65714286,583.4406019999999,69,531,1.0
nombre,99.6732,577.813069,0,960,1.0
sino,87.46082,575.7888469999998,48,2112,0.0
política,99.22481,564.423311,49,613,1.0
cual,97.93103448,561.55106,75,790,1.0
además,100.0,560.9012290000002,22,30,1.0
unión,99.68153,560.638048,93,688,1.0
tras,96.2963,557.642329,5,846,1.0
menos,99.3266,549.496703,21,565,1.0
siempre,100.0,548.28152,50,610,1.0
trabajo,99.21875,545.974622,30,560,1.0
pues,99.06832,531.9642759999998,59,1570,1.0
efe,71.55688623,530.537898,68,3133,0.0
nuevo,99.59759,529.823084,47,446,1.0
embargo,99.6742671,520.511012,38,836,1.0
día,98.7854251,518.512783,86,682,1.0
poco,99.05956,512.683803,64,837,1.0
historia,99.68253968,506.003546,88,709,1.0
san,83.62069,504.343229,85,724,1.0
caso,98.98580122,503.537439,10,846,1.0
entonces,99.02597403,497.81243200000006,38,579,1.0
quien,100.0,495.755718,69,2569,1.0
mucho,99.71014,494.433313,79,746,1.0
toda,99.66667,491.067191,62,629,1.0
ante,93.9516129,491.060692,81,1206,1.0
estas,96.04316547,487.587348,55,720,1.0
mejor,99.16667,479.727648,52,525,1.0
decir,99.81024668,478.265529,57,570,1.0
hombre,99.38080495,478.220041,18,706,1.0
medio,99.59239,472.761464,30,625,1.0
consejo,100.0,472.73872,26,627,1.0
momento,99.64286,470.113405,80,555,1.0
eso,98.42767296,465.847267,4,788,1.0
nacional,99.38272,460.924801,54,1027,1.0
partido,99.61686,457.237013,18,654,1.0
nueva,99.63899,450.569751,70,626,1.0
guerra,99.72527473,446.495314,19,577,1.0
bajo,99.70238095,442.297409,55,687,1.0
nada,99.55457,440.2764360000001,1,1010,1.0
poder,99.5356,438.781825,16,505,1.0
tal,99.69325,434.525435,82,822,1.0
parlamento,99.35275,432.868368,36,2107,1.0
cuenta,99.7037037,422.721264,35,1455,1.0
acuerdo,98.10126582,414.546396,18,591,1.0
sistema,99.36306,413.727609,81,493,1.0
importante,100.0,411.622158,1,634,1.0
fin,99.23076923,411.407714,79,680,1.0
luego,98.96551724,405.198583,12,618,1.0
casa,99.59839357,403.590253,26,610,1.0
punto,99.23077,399.925208,56,1152,1.0
ver,99.37888,394.697322,8,1040,1.0
aquí,99.42528736,386.665416,23,928,1.0
siglo,99.66777,384.391009,26,1762,1.0
pasado,99.60212,384.335774,93,746,1.0
informe,98.24902724,383.923131,76,549,1.0
desarrollo,99.0228013,381.824179,47,731,1.0
juan,98.73015873,369.688593,34,527,1.0
tener,99.01316,368.35969,9,758,1.0
haber,99.6835443,363.180541,8,810,1.0
río,99.56332,358.930649,16,560,1.0
manera,99.375,355.24611,99,782,1.0
ejemplo,99.80314961,352.656535,90,751,1.0
casi,100.0,352.653286,1,1210,1.0
modo,98.56115,348.211694,18,662,1.0
cuatro,99.68652038,346.684592,94,900,1.0
junto,99.18032787,344.800084,52,619,1.0
dentro,100.0,343.760355,7,705,1.0
número,98.8604,341.661402,6,490,1.0
europeo,99.2248062,341.3137430000001,65,580,1.0
situación,99.31741,339.78989,70,620,1.0
derecho,99.59266802,333.086888,55,690,1.0
rey,99.37107,328.456846,66,718,1.0
allí,98.15498155,327.3001470000001,60,579,1.0
población,99.67427,324.756061,20,765,1.0
final,98.90453834,324.440893,67,630,1.0
social,99.20635,324.291432,76,132,1.0
posible,99.67742,322.559634,33,501,1.0
seguridad,99.3617,321.120259,4,697,1.0
muerte,99.5283,320.977296,24,774,1.0
dios,99.18200409,320.226742,37,508,1.0
frente,99.32975871,319.586659,80,726,1.0
nunca,98.27236,318.5144390000001,50,580,1.0
tierra,99.61538,318.342233,25,511,1.0
solo,99.44649,317.377235,88,648,1.0
ley,99.47299078,316.373247,84,514,1.0
proceso,99.0228,314.816903,76,469,1.0
tipo,99.31507,314.446499,63,310,1.0
segundo,98.91156,312.792681,89,706,1.0
real,99.42446,309.384319,91,490,1.0
pueblo,99.67846,308.429069,73,576,1.0
segunda,99.59514,305.907726,91,95,1.0
ayer,99.37888199,303.750289,38,628,1.0
cualquier,98.62068966,301.781302,54,705,1.0
centro,99.27007299,301.651336,80,811,1.0
dar,99.57983193,301.280933,55,703,1.0
fuera,98.76160991,300.501136,37,604,1.0
padre,99.6063,299.493899,5,722,1.0
obra,100.0,298.64587,4,752,1.0
último,99.32203,298.619877,63,835,1.0
dicho,99.65156794,296.316227,60,716,1.0
respecto,98.14241,294.165288,94,1100,1.0
norte,100.0,293.229532,64,807,1.0
sociedad,99.65753,288.82693,65,646,1.0
mujer,99.30314,287.991898,3,623,1.0
relación,99.34853,283.482074,96,743,1.0
sur,99.33993,283.235139,83,718,1.0
equipo,98.80597015,282.871233,27,671,1.0
español,99.63369963,280.700799,73,699,1.0
través,91.77215,280.021727,62,911,1.0
agua,99.60106383,277.367169,22,909,1.0
familia,99.79879276,277.152725,98,455,1.0
tarde,99.14712,275.219479,73,713,1.0
don,97.74590164,274.660625,3,1218,1.0
incluso,99.30795848,273.325223,60,1042,1.0
noche,99.79879,273.282984,16,690,1.0
estar,98.59649123,272.633153,25,511,1.0
zona,99.65157,272.03206,24,805,1.0
información,99.6763754,268.828396,54,713,1.0
serie,99.39759,266.885402,33,537,1.0
mercado,99.33993,266.186834,4,514,1.0
orden,99.36709,265.813182,80,816,1.0
lado,99.12587413,263.616755,97,677,1.0
capital,99.27536232,263.48029,1,1153,1.0
sentido,99.41748,261.826471,42,463,1.0
mar,99.88877,258.564322,30,457,1.0
debido,98.67424242,256.946244,50,855,1.0
cuanto,99.33920705,256.406885,42,1197,1.0
largo,99.78448276,253.853051,26,692,1.0
mundial,99.0566,252.771083,49,704,1.0
cambio,99.29648241,251.63063,38,743,1.0
hijo,100.0,250.977551,42,934,1.0
puesto,99.05482,250.954807,22,914,1.0
mañana,99.84127,247.169544,16,922,1.0
nivel,99.7921,247.120806,38,539,1.0
programa,100.0,246.038839,85,766,1.0
cuerpo,98.84259259,244.30704,4,491,1.0
aquel,98.05194805,242.916403,37,1093,1.0
ministro,99.68652,241.090379,10,892,1.0
primero,99.58246,239.43656,9,728,1.0
universidad,98.99329,239.303345,12,1644,1.0
maría,98.74608,238.819221,83,877,1.0
pesar,99.36441,237.630031,65,612,1.0
todavía,99.66216,236.577306,49,512,1.0
lía,80.0,235.492089,70,1036,1.0
cinco,99.375,234.923487,82,1326,1.0
mano,99.85795,234.319145,47,625,1.0
actual,98.97959184,233.393136,53,747,1.0
principal,100.0,233.139702,95,789,1.0
fuerza,100.0,232.278677,81,887,1.0
provincia,99.68051,232.184451,17,584,1.0
gracias,99.01639344,232.177953,99,789,1.0
principio,99.79036,231.641843,6,720,1.0
julio,99.0,231.489133,58,714,1.0
propuesta,99.64413,231.06674300000003,29,672,1.0
gente,98.93992933,230.836053,90,586,1.0
paso,98.9899,226.683636,80,2093,1.0
campo,99.21875,226.677138,87,557,1.0
alguna,99.70326409,226.404209,23,869,1.0
madre,99.80620155,225.341736,91,220,0.0
partir,99.42363,223.184299,76,598,1.0
común,99.20948617,222.531219,64,587,1.0
base,99.55882353,221.709183,2,1037,0.0
proyecto,99.67949,221.579217,22,1225,1.0
uso,99.58932,221.420009,59,829,1.0
vista,99.58848,221.303039,79,798,1.0
problema,100.0,220.286054,94,602,1.0
región,100.0,220.247064,69,693,1.0
cabeza,99.35553169,220.039119,50,605,1.0
propio,99.59893,219.408783,48,821,1.0
realidad,99.4382,219.116359,73,641,1.0
cuestión,98.93617021,218.836932,65,931,1.0
cosa,99.56989247,217.722473,19,632,1.0
música,99.62477,217.287086,91,537,1.0
iglesia,98.93992933,216.325337,75,750,1.0
paz,99.16898,215.824968,82,667,1.0
público,99.3617,214.713757,70,635,1.0
cerca,98.69281046,213.498574,79,3281,1.0
tía,99.70149,213.118423,78,492,1.0
interior,99.84076433,212.777262,56,601,1.0
cierto,99.58071279,212.663542,91,736,1.0
apoyo,99.669967,212.647296,43,623,1.0
comunidad,99.62264151,212.296388,25,772,1.0
razón,99.03846,212.192415,77,597,1.0
político,99.61977,211.194925,4,914,1.0
libro,99.36305732,210.866761,13,946,1.0
enero,98.76923077,210.210432,20,729,1.0
camino,99.02912621,209.905011,0,1370,1.0
producción,99.05956,209.804288,81,586,1.0
total,99.02597,209.612588,55,838,1.0
mayo,98.34983,209.433884,96,590,1.0
marzo,100.0,208.852286,11,751,1.0
amor,99.27536232,208.368162,64,596,1.0
haya,95.9375,207.711833,7,940,1.0
siguiente,99.69136,207.113989,25,996,1.0
ayuda,99.23547401,206.759832,6,724,1.0
luis,95.80645161,206.048267,87,1583,1.0
voz,99.62335,205.573891,87,416,1.0
luz,98.51694915,205.50241,57,468,1.0
mayoría,100.0,205.450423,63,1191,1.0
llegar,98.31081081,205.122259,0,567,1.0
central,99.34640523,204.73561,39,709,1.0
papel,100.0,204.472428,62,1047,1.0
ningún,99.3921,203.799854,3,1852,1.0
alto,99.39393939,203.143525,99,773,1.0
hora,99.25373134,203.137026,1,918,1.0
futuro,99.33993399,202.808862,17,991,1.0
nadie,99.35691,202.789367,43,579,1.0
verdad,99.44238,202.743879,34,683,1.0
único,99.35691,202.379974,46,536,1.0
debate,99.39393939,202.172028,37,1413,1.0
santa,99.71429,202.061557,63,612,1.0
valor,99.04153,201.89585,8,595,1.0
buena,98.98989899,201.148545,7,751,1.0
demás,97.36842105,200.703411,5,933,1.0
mal,99.43181818,198.230806,76,144,1.0
diciembre,99.71181556,198.02286,98,605,1.0
esos,97.88732394,196.98638,34,624,1.0
control,99.68454259,196.466516,61,1333,1.0
propia,98.27586,196.417779,11,784,1.0
director,99.34640523,195.488521,44,994,1.0
septiembre,99.6337,195.423538,36,959,1.0
libertad,99.14285714,195.040138,35,889,1.0
origen,99.73545,194.07514,93,1938,1.0
sector,99.3865,193.649501,66,984,1.0
falta,99.6835443,193.412312,49,669,1.0
acción,98.84057971,193.337582,90,668,1.0
favor,99.56140351,193.266101,24,803,1.0
junio,99.69040248,191.88846,18,836,1.0
especial,98.55907781,191.803982,94,874,1.0
igual,98.96049896,191.764992,10,621,1.0
persona,99.70845,191.742248,67,461,1.0
ninguna,99.04459,191.693511,11,736,1.0
idea,99.43925234,191.586289,27,561,1.0
inglés,99.3987976,190.614792,56,867,1.0
última,99.67742,188.925233,23,770,1.0
economía,99.66777409,188.915485,85,862,1.0
juego,99.42196532,188.522338,10,1210,1.0
ejército,99.70760234,188.106446,49,642,1.0
tema,99.58506,187.895251,93,749,1.0
dirección,99.70414201,187.24867,19,713,1.0
cabo,98.97330595,187.147946,60,911,1.0
objetivo,99.22929,187.105707,17,976,1.0
octubre,99.67105,187.069966,36,602,1.0
época,99.10979228,186.962744,7,1277,1.0
abril,99.07120743,185.513622,26,739,1.0
argentina,100.0,185.126973,36,701,1.0
edad,99.35897436,184.551873,27,643,1.0
importancia,99.39759036,184.415409,62,1030,1.0
actualmente,98.82697947,183.726588,17,881,1.0
media,99.71347,183.716841,26,753,1.0
opinión,99.02913,182.985781,71,704,1.0
palabra,99.80315,182.456169,95,634,1.0
necesario,99.64286,182.446422,89,1274,1.0
posición,98.6755,182.160497,99,768,1.0
éxito,99.18367347,182.056524,69,953,1.0
energía,100.0,181.959049,77,592,1.0
joven,98.98989899,181.491171,51,1334,1.0
cultura,100.0,181.153259,55,611,1.0
servicio,99.38272,180.987552,53,681,1.0
interés,99.65870307,180.366964,19,554,1.0
necesidad,99.58333,179.899086,50,1163,1.0
banda,99.23809524,179.619659,6,785,1.0
febrero,99.25650558,179.051057,4,790,1.0
reino,98.85057,178.950334,5,697,1.0
organización,99.67532,178.882102,52,1639,1.0
semana,99.3763,178.222524,71,567,1.0
resultado,99.69419,176.968351,49,837,1.0
conjunto,99.73190349,176.295776,35,630,1.0
militar,98.76543,175.714178,26,540,1.0
buen,98.51351351,175.70118100000005,73,480,1.0
pronto,100.0,174.664701,37,722,1.0
causa,99.50690335,174.502244,30,538,1.0
efecto,98.99799599,174.482749,79,894,1.0
república,99.12281,174.070106,33,833,1.0
dinero,99.65156794,173.29031,42,800,1.0
atención,99.68253968,173.199333,0,718,1.0
decisión,98.73015873,173.153845,17,987,1.0
nía,4.77707,173.088862,79,938,0.0
anterior,98.97260274,173.046623,72,804,1.0
noviembre,100.0,172.520261,68,1180,1.0
ciento,97.4137931,172.396793,48,782,1.0
buenos,99.64157706,171.857433,96,1109,1.0
llamado,99.67845659,170.658496,22,590,1.0
justicia,99.3902439,170.648749,21,1018,1.0
medida,99.21875,170.632503,75,646,1.0
grande,99.19839679,169.735737,26,1133,1.0
defensa,99.03536977,169.51154499999996,54,699,1.0
movimiento,100.0,169.36533300000005,22,687,1.0
agosto,100.0,169.352337,68,641,1.0
libre,99.5508982,169.30035,66,571,1.0
saber,99.36975,169.189879,41,642,1.0
deber,98.66666667,168.527052,78,701,1.0
duda,98.70967742,168.488062,43,646,1.0
lucha,99.05362776,167.516565,9,588,1.0
línea,99.58506224,167.133165,47,805,1.0
película,99.73262,166.834243,9,671,1.0
popular,99.36441,165.950474,31,615,1.0
claro,99.8065764,165.518337,11,763,1.0
visto,99.01639,165.303892,13,758,1.0
civil,99.69135802,165.216165,60,586,1.0
club,99.11504425,164.530594,4,937,1.0
empresa,99.69230769,164.221925,12,1199,1.0
arte,99.60629921,163.87426499999995,89,661,1.0
estudio,99.41176471,163.653323,53,808,1.0
conocido,99.69040248,163.399889,46,656,1.0
artículo,99.18200409,163.078223,79,1599,1.0
fuerte,99.18200409,163.055479,64,841,1.0
educación,99.03846154,162.811792,42,636,1.0
municipio,100.0,162.47388,13,803,1.0
fondo,99.55357143,162.048241,18,618,1.0
naturaleza,99.65517,161.762316,63,1451,1.0
calidad,100.0,160.23521399999996,95,796,1.0
pedro,97.31544,160.131241,41,1115,1.0
marco,99.35484,159.77383500000005,89,1026,1.0
carrera,99.66216216,159.660114,96,611,1.0
salud,99.34853,159.22147900000004,5,581,1.0
puerta,99.10714,158.977792,37,533,1.0
finalmente,99.6763754,158.97454299999995,24,820,1.0
presencia,99.0228,158.951799,34,574,1.0
tratado,99.35897,158.305218,4,751,1.0
pública,99.62121,157.385707,27,549,1.0
plan,99.68454,157.025051,6,863,1.0
espacio,99.3485342,156.167275,50,711,1.0
chile,99.32432432,156.14128200000005,16,814,1.0
materia,99.6587,155.16978500000005,21,528,1.0
francés,99.23371648,154.896856,11,1658,1.0
hablar,98.81188119,154.61742900000004,55,663,1.0
seguir,99.01961,154.402985,54,770,1.0
construcción,99.3902439,154.396487,4,2258,1.0
menor,99.71056,154.146302,80,702,1.0
isla,99.05362776,154.00333899999995,84,556,1.0
resto,98.75389,153.77265,70,588,1.0
carácter,100.0,153.642683,26,800,1.0
oficial,99.62264,153.548458,86,776,1.0
policía,99.65636,153.087078,49,1243,1.0
protección,99.42693,152.031104,4,862,1.0
creación,98.54651163,151.556727,29,717,1.0
francisco,98.46625767,151.371526,99,572,1.0
tío,98.21429,151.118092,99,453,1.0
oro,99.78947,150.325299,71,412,1.0
capacidad,99.03536977,149.737202,63,534,1.0
título,99.65636,149.727454,82,714,1.0
comunicación,99.62686567,149.47727,4,1313,1.0
actividad,98.89298893,149.467522,71,747,1.0
presente,99.48007,149.42853200000005,62,674,1.0
premio,99.66667,148.885924,21,891,1.0
natural,99.40209,148.603248,15,594,1.0
corazón,99.78991597,148.45703600000004,98,668,1.0
particular,99.80198,148.050892,97,794,1.0
superior,99.37888,147.540775,5,1336,1.0
miembro,99.3311,146.903941,81,3227,1.0
sol,99.33422,146.864951,26,452,1.0
jefe,99.01639344,146.582275,32,818,1.0
calle,99.3220339,145.95193899999995,95,604,1.0
próximo,99.37695,145.76023899999996,22,1078,1.0
bastante,98.62068966,145.740744,0,1293,1.0
tribunal,99.39394,145.737495,31,638,1.0
cargo,99.62825279,144.954449,92,520,1.0
fútbol,100.0,144.658776,59,659,1.0
término,99.6875,144.288373,26,264,1.0
mes,98.18731,144.278625,68,724,1.0
crisis,99.65870307,144.138912,3,791,1.0
mas,95.27273,143.72951899999995,19,1740,0.0
escuela,99.38461538,143.268139,69,964,1.0
televisión,99.69789,143.18691,93,682,1.0
mío,99.05063,143.15116899999995,44,735,1.0
objeto,99.38272,143.040698,19,517,1.0
respuesta,99.67532,142.748274,67,755,1.0
demasiado,98.72204473,141.546088,17,639,1.0
comercio,99.44598338,140.68181299999998,35,655,1.0
contrario,99.42938659,139.82728600000002,29,889,1.0
presidencia,99.69605,139.713566,88,584,1.0
congreso,99.63898917,139.655081,1,1598,1.0
tampoco,98.93238,139.573852,84,756,1.0
amigo,100.0,138.00776100000002,15,712,1.0
pasar,100.0,137.94602700000002,60,901,1.0
alta,99.79633401,137.94602700000002,50,457,1.0
ambiente,99.60159363,137.90053899999998,27,615,1.0
posibilidad,99.65157,137.211718,41,1852,1.0
formación,99.33774834,137.068756,41,544,1.0
imagen,99.65277778,136.844564,96,717,1.0
temporada,99.69697,136.721096,87,644,1.0
modelo,99.60707,136.665861,42,1020,1.0
territorio,99.6633,136.33444699999998,52,967,1.0
costa,99.01185771,136.090761,95,867,1.0
difícil,99.66777409,135.788589,61,656,1.0
texto,99.69697,135.535155,5,1229,1.0
evitar,99.65635739,135.379196,76,925,1.0
personal,99.40828,135.190745,34,775,1.0
cámara,99.13043478,134.498676,98,1013,1.0
tomar,99.58763,134.378457,1,1281,1.0
aire,99.25373134,133.358223,50,669,1.0
obstante,99.27273,133.06255,79,1700,1.0
resolución,98.93993,132.90984,21,845,1.0
ámbito,98.78419453,132.370481,58,699,1.0
versión,98.66667,131.928596,64,744,1.0
encontrar,99.68553459,131.86036399999998,39,828,1.0
escrito,99.5412844,131.801879,66,832,1.0
cine,99.66777409,131.431476,76,717,1.0
álbum,99.04153355,130.87587,85,879,1.0
estilo,100.0,130.716662,21,858,1.0
constitución,100.0,130.651679,56,753,1.0
compañía,99.63235294,130.255282,13,722,1.0
alma,99.83974359,129.44624299999998,54,459,1.0
cantidad,98.19277108,129.241547,4,649,1.0
industria,99.3220339,128.95887,34,573,1.0
batalla,99.58506224,128.949123,91,925,1.0
vía,99.36102,128.932877,70,579,1.0
siete,100.0,128.90688400000002,64,549,1.0
alrededor,99.30555556,128.783416,84,588,1.0
autor,99.35275081,128.53973,7,633,1.0
clase,98.97119342,128.34803,45,762,1.0
cooperación,99.67845659,128.09134699999998,15,668,1.0
blanco,99.13916786,127.860657,57,795,1.0
suelo,99.4575,127.574731,78,710,1.0
empleo,99.66666667,127.282308,46,526,1.0
domingo,99.27797834,126.934648,93,651,1.0
aplicación,99.66666667,126.827426,76,638,1.0
plaza,98.50187,126.78193799999998,84,788,1.0
asunto,99.37106918,126.612982,67,559,1.0
fecha,98.93162393,126.547999,71,523,1.0
departamento,98.51190476,126.317309,58,996,1.0
color,99.669967,126.119111,32,652,1.0
disco,99.68944099,125.53101399999998,27,1070,1.0
voluntad,99.60552,125.16386,20,625,1.0
comisario,98.90510949,125.157362,74,670,1.0
hija,99.65870307,125.053389,23,971,1.0
espíritu,99.61832061,124.916924,50,553,1.0
red,99.31973,124.296336,92,1155,1.0
poner,99.69789,124.137128,22,714,1.0
dejar,99.33110368,124.111135,49,749,1.0
cara,99.79209979,123.971421,84,554,1.0
aun,83.49206349,123.909687,96,592,1.0
directiva,99.35275081,123.487297,66,781,1.0
prensa,98.95105,123.318341,51,722,1.0
división,98.21428571,123.198123,98,647,1.0
reforma,99.01961,123.051911,96,1465,1.0
allá,99.02912621,121.671021,86,1031,1.0
volver,99.68944,121.632031,55,571,1.0
existencia,98.3277592,121.59629,58,1865,1.0
carta,98.86148008,121.537806,79,570,1.0
llevar,100.0,120.959456,32,889,1.0
llamada,100.0,120.952958,64,781,1.0
lleva,98.89705882,120.852234,99,879,1.0
acceso,98.6013986,120.787251,10,797,1.0
crear,98.7012987,120.423346,8,1230,1.0
realizar,99.66216,120.348616,56,564,1.0
deseo,99.0228013,119.978212,92,547,1.0
lengua,99.79466119,119.438853,38,997,1.0
fuego,99.70014993,119.100941,38,1319,1.0
lista,98.71382637,119.048955,72,778,1.0
período,97.2973,118.733787,8,5523,0.0
pregunta,99.19355,118.63631200000002,61,1065,1.0
banco,99.26199262,118.626565,11,639,1.0
crecimiento,99.61685824,118.516094,54,591,1.0
realmente,99.68553,118.14893899999998,5,746,1.0
hermano,99.39209726,117.736297,29,643,1.0
liga,99.66101695,117.720051,88,603,1.0
copa,99.56709957,117.710304,19,717,1.0
antiguo,99.0990991,117.284665,51,755,1.0
económico,100.0,117.213183,82,650,1.0
especie,98.87218045,117.141702,94,524,1.0
izquierda,98.55371901,116.823285,77,852,1.0
bueno,99.30313589,116.71931200000002,92,442,1.0
cía,59.87654321,116.706316,95,335,0.0
apenas,98.68421053,116.462629,80,522,1.0
teatro,99.40476,116.384649,26,582,1.0
conocimiento,99.53488372,116.111721,71,730,1.0
china,99.37888199,115.689331,72,891,1.0
función,99.35897436,115.611351,91,627,1.0
puerto,99.64664,115.299432,34,754,1.0
local,99.61013645,115.179214,27,571,1.0
referencia,99.35897,114.867295,32,876,1.0
reunión,99.72067,114.782817,56,562,1.0
dicha,98.50746269,114.649602,96,628,1.0
victoria,100.0,114.50339,36,512,1.0
área,99.10979228,114.032263,21,634,1.0
práctica,98.49398,113.587129,51,492,1.0
mantener,98.74214,113.447415,81,689,1.0
motivo,99.35897,113.349941,90,834,1.0
cuarto,98.98167006,113.349941,14,682,1.0
secretario,99.30314,113.26546299999998,9,818,1.0
fuente,99.6978852,113.054268,32,593,1.0
experiencia,99.67105263,112.81708,14,707,1.0
diferencia,99.66101695,112.553898,96,579,1.0
lío,98.56630824,112.521407,66,659,1.0
consecuencia,99.78858351,111.332217,10,897,1.0
asociación,99.3485342,111.16651,74,1505,1.0
oeste,99.61315,110.870837,53,1082,1.0
conseguir,98.92473118,110.838346,9,1268,1.0
tercera,98.78788,110.802605,8,810,1.0
ministerio,99.34641,110.656393,20,772,1.0
ten,85.71429,110.412707,35,952,1.0
marcha,99.16143,109.873347,13,725,1.0
mitad,98.68421,109.681647,42,1034,1.0
entrada,98.97959184,109.548432,0,2009,1.0
prueba,100.0,109.145537,16,817,1.0
salir,99.6633,108.869359,97,577,1.0
asimismo,81.37254902,108.736144,90,1719,1.0
sala,98.40256,108.602929,76,775,1.0
transporte,99.65398,108.317003,35,674,1.0
pie,99.58159,108.265017,97,684,1.0
alemán,99.46332737,107.667173,26,718,1.0
trabajar,98.71383,107.611937,51,919,1.0
régimen,98.95833,107.44948,33,678,1.0
juicio,98.98989899,107.42998500000002,52,607,1.0
gestión,99.05362776,106.952359,83,599,1.0
lejos,98.99665552,106.731417,12,476,1.0
baja,98.71382637,106.503976,94,697,1.0
figura,100.0,106.45199,80,1490,1.0
original,99.69697,106.344768,59,932,1.0
vuelta,99.85141,106.250542,55,776,1.0
ciencia,99.40828402,106.127074,67,587,1.0
solamente,99.27007,106.08158600000002,63,1460,1.0
aspecto,99.6763754,106.016603,17,1476,1.0
cruz,99.57805907,105.88338799999998,78,710,1.0
exterior,99.81096408,105.779415,16,1134,1.0
negro,99.23372,105.776166,49,480,1.0
canción,99.3883792,105.49024,35,539,1.0
viaje,98.9605,105.165325,53,396,1.0
plazo,98.59155,105.158827,84,596,1.0
sangre,99.51923,105.142581,39,565,1.0
ponente,93.7365,104.632464,44,663,1.0
localidad,99.6,104.528491,88,2038,1.0
acto,99.03225806,104.375781,66,580,1.0
conocer,99.35691318,104.154839,12,788,1.0
humano,99.66329966,104.15159,51,551,1.0
radio,98.82583,104.080108,88,610,1.0
género,99.10447761,103.95989,94,846,1.0
supuesto,99.25816,103.660968,35,957,1.0
cielo,99.81515712,103.582988,95,569,1.0
campaña,99.1202346,103.319806,82,665,1.0
competencia,99.65034965,103.19309,20,792,1.0
adelante,100.0,102.88442,35,659,1.0
valencia,98.0198,102.751205,46,620,1.0
viejo,99.60861,102.566003,30,539,1.0
unidad,99.23077,102.497771,6,973,1.0
león,99.31740614,102.42304,50,651,1.0
líder,100.0,102.413293,42,895,1.0
democracia,99.30555556,102.280078,89,806,1.0
estructura,99.65397924,101.96491,28,1629,1.0
solución,99.29825,101.753715,51,748,1.0
garcía,94.17808219,101.737469,54,863,1.0
análisis,99.31506849,101.704978,82,643,1.0
pensar,98.61592,101.445045,54,513,1.0
vivir,99.79424,101.4288,16,1170,1.0
palacio,99.36306,101.295584,94,561,1.0
pequeño,99.22179,101.126628,23,694,1.0
presidenta,99.0099,100.798464,18,869,1.0
actualidad,99.36305732,100.77572,51,670,1.0
mesa,99.12935,100.246108,55,635,1.0
niño,98.9648,100.070654,78,736,1.0
edición,99.40298507,99.645015,88,618,1.0
encuentro,99.33993399,99.515049,46,1310,1.0
diario,99.38366718,99.446816,73,1021,1.0
encima,99.45799458,99.430571,60,511,1.0
ocasión,97.74011,99.063416,66,809,1.0
siquiera,91.20521,99.021177,20,1179,1.0
quizá,96.66667,98.826228,36,978,1.0
violencia,99.4429,98.793737,91,755,1.0
canal,99.32126697,98.478569,87,508,1.0
rusia,95.73171,98.407088,84,1388,1.0
entrar,98.73817035,97.929462,90,566,1.0
instituto,98.95470383,97.289379,42,646,1.0
muerto,99.23664,97.13342,18,694,1.0
superficie,99.2126,97.071686,29,690,1.0
jugador,98.50187266,97.003454,75,810,1.0
sede,98.32402,96.886484,3,969,1.0
sitio,99.6587,96.698033,20,526,1.0
humana,100.0,96.55832,19,680,1.0
precio,99.19679,96.350374,64,582,1.0
honor,99.59016393,96.226906,12,514,1.0
precisamente,99.70588,96.139179,94,555,1.0
oportunidad,99.04459,95.723287,34,988,1.0
personaje,100.0,95.684298,66,499,1.0
concepto,99.58677686,95.596571,89,1113,1.0
cultural,99.12790698,95.421116,33,792,1.0
selección,99.6875,95.356133,88,533,1.0
material,99.22481,95.151437,34,2215,1.0
novela,98.77301,95.070208,99,600,1.0
compromiso,99.61685824,95.053962,47,654,1.0
seguro,99.32976,94.849265,24,762,1.0
asamblea,98.3277592,94.820023,75,912,1.0
periodo,97.84946,94.511354,56,1013,1.0
toma,99.36709,94.436623,58,970,1.0
teoría,99.35897,94.397633,50,725,1.0
expresión,98.820059,94.29366,62,914,1.0
imperio,98.16176471,94.088964,7,1019,1.0
santo,99.00398,94.017482,61,697,1.0
totalmente,99.66887,93.851776,19,587,1.0
corte,98.91540129999998,93.832281,73,639,1.0
grado,99.44029851,93.637331,51,786,1.0
socialista,99.63899,93.637331,49,607,1.0
señora,98.85496,93.614587,30,530,1.0
museo,99.09366,93.22144,88,402,1.0
pobre,99.81238,93.214942,13,650,1.0
cierta,98.08917197,92.984252,7,728,1.0
reina,99.67213,92.948511,64,654,1.0
valle,98.57651,92.896525,93,660,1.0
mucha,99.02597,92.704825,48,519,1.0
altura,99.35064935,92.662586,74,740,1.0
influencia,98.8372093,92.503377,16,700,1.0
derecha,99.61389961,92.366913,82,485,1.0
revolución,99.31507,92.353916,20,611,1.0
capaz,98.98648649,92.314926,11,748,1.0
vino,99.63899,91.899035,54,563,1.0
distrito,97.93103448,91.798311,12,798,1.0
máximo,99.729,91.691089,56,720,1.0
aumento,99.79633401,91.632604,98,568,1.0
revista,98.72611,91.427908,47,694,1.0
alcanzar,99.67213115,91.314187,46,777,1.0
memoria,99.40653,91.138733,28,698,1.0
edificio,99.67948718,90.862555,6,767,1.0
peligro,99.60938,90.732589,81,612,1.0
suerte,98.62069,90.589626,18,725,1.0
riesgo,99.00398,90.534391,97,522,1.0
villa,99.36508,90.323196,49,803,1.0
conciencia,98.95287958,90.160738,18,978,1.0
esposa,99.66216216,90.021025,3,724,1.0
escritor,99.4011976,89.975536,1,599,1.0
silencio,99.71831,89.69610899999998,88,755,1.0
príncipe,99.79381,89.689611,55,852,1.0
menudo,100.0,89.56939200000002,16,595,1.0
propiedad,99.4152,89.533652,52,526,1.0
ataque,98.92473118,89.332204,35,649,1.0
conferencia,99.12790698,89.202238,37,888,1.0
miedo,99.3311,89.159999,41,495,1.0
vasco,94.63087,89.134006,21,658,1.0
espera,100.0,89.12750799999998,18,1054,1.0
ahí,98.99328859,89.101514,38,567,1.0
ejercicio,99.65986395,88.54266,40,625,1.0
reglamento,99.65035,88.474428,16,582,1.0
parque,99.68254,88.315219,35,686,1.0
confianza,98.62542955,88.05528699999998,7,640,1.0
estrategia,99.70760234,87.89283,58,633,1.0
brasil,98.85931559,87.860338,14,801,1.0
municipal,100.0,87.785607,74,1157,1.0
presupuesto,98.98305,87.688133,59,166,0.0
operación,99.3865,87.619901,6,810,1.0
etapa,99.6978852,87.415204,4,1094,1.0
oposición,99.36508,87.213757,94,789,1.0
estación,99.65635739,86.888841,59,743,1.0
iniciativa,99.28571429,86.710138,42,587,1.0
larga,99.67105263,86.70039,24,489,1.0
plata,100.0,86.528185,60,994,1.0
sentencia,98.42767,86.479448,33,6484,1.0
diálogo,99.67320261,86.274751,79,556,1.0
boca,99.35483871,86.20002099999998,78,552,1.0
obtener,99.31271,86.027816,88,764,1.0
agricultura,99.00990099,85.15379399999998,12,640,1.0
terreno,99.66555,85.108306,56,921,1.0
profesional,99.6124,84.955595,45,2016,1.0
musical,99.23372,84.689165,75,702,1.0
mil,98.86792,84.59169,18,741,1.0
esfuerzo,99.28057554,84.464973,99,978,1.0
respeto,98.09886,84.315512,11,656,1.0
fiscal,99.2481203,84.299267,1,806,1.0
contenido,99.35275081,84.084823,34,612,1.0
garantizar,99.4100295,83.94185999999998,99,779,1.0
fundamental,99.03536977,83.815143,29,1534,1.0
fase,98.10725552,83.538965,83,548,1.0
establecer,99.11242604,83.460985,90,742,1.0
lograr,98.6440678,83.44149,8,710,1.0
recurso,100.0,83.331019,30,753,1.0
verano,99.7093,83.301777,73,550,1.0
producto,99.66887,83.23354499999998,32,770,1.0
comercial,99.60784314,83.188056,90,809,1.0
declaración,99.23664122,83.090582,76,521,1.0
comité,98.9010989,83.00610400000002,5,1659,1.0
literatura,98.82352941,82.98336,82,661,1.0
castillo,99.72752044,82.856643,98,651,1.0
peso,98.9726,82.75591899999998,23,496,1.0
distancia,99.6969697,82.71692900000002,5,531,1.0
caballo,99.3006993,82.492738,25,731,1.0
pablo,94.1691,82.36277199999998,15,1093,1.0
viernes,99.77629,82.158075,14,572,1.0
juez,99.3883792,82.119085,34,404,1.0
conflicto,99.29824561,82.115836,2,623,1.0
fácil,98.53479853,82.112587,74,1099,1.0
mejorar,99.33555,81.940382,91,671,1.0
barrio,99.69604863,81.764928,8,1966,1.0
legislación,98.6631016,81.547234,96,607,1.0
suficiente,99.64029,81.482251,43,694,1.0
condición,99.64664311,81.345787,83,659,1.0
técnica,99.64912,81.25806,62,659,1.0
ene,71.19675456,80.89740400000002,34,1309,0.0
electoral,99.70631424,80.877909,78,735,1.0
nacido,99.33993,80.764188,32,2325,1.0
intervención,99.01315789,80.41328,44,744,1.0
pensamiento,100.0,80.26057,88,876,1.0
simplemente,100.0,80.25732099999998,65,811,1.0
verde,99.36441,80.166344,57,469,1.0
federal,98.92933619,80.153348,49,837,1.0
lunes,100.0,80.11760699999998,72,1007,1.0
salida,98.74608,80.111109,38,740,1.0
torno,97.0,80.007136,96,652,1.0
jamás,99.11764706,79.82843299999998,0,1250,1.0
profesor,99.68553,79.669224,98,517,1.0
maestro,99.22630561,79.652978,27,1259,1.0
piedra,99.0625,79.51001600000002,81,1241,1.0
autoridad,99.33110368,79.441783,35,797,1.0
filosofía,99.28057554,79.204595,94,686,1.0
doble,99.43661972,79.16885500000002,48,1832,1.0
buscar,99.64412811,79.142861,10,589,1.0
década,99.15730337,79.022643,46,724,1.0
conde,97.0845481,79.00964599999998,66,722,1.0
carne,100.0,78.86993199999998,77,526,1.0
perdido,100.0,78.84069000000002,46,760,1.0
misión,99.6337,78.60025300000002,99,693,1.0
martín,97.48954,78.554765,57,754,1.0
curso,99.669967,78.541768,97,727,1.0
visita,99.64158,78.051146,68,823,1.0
actor,99.04153355,77.92118,67,598,1.0
destino,98.97959184,77.885439,69,723,1.0
británico,98.4375,77.865944,19,777,1.0
fundación,98.4962406,77.664497,73,732,1.0
detrás,100.0,77.48254399999998,56,699,1.0
evolución,99.69040248,77.34608,53,865,1.0
página,99.66216,77.30059200000002,93,508,1.0
esperanza,99.29824561,77.069902,39,671,1.0
intención,99.78070175,77.066653,7,891,1.0
par,99.34426,76.498051,81,756,1.0
capitán,99.05063291,76.384331,32,567,1.0
votación,100.0,76.10165400000002,49,1017,1.0
velocidad,99.46237,76.033422,16,593,1.0
italiano,98.67986799,76.00093100000002,80,1190,1.0
imposible,99.69230769,75.968439,21,818,1.0
enrique,92.38095238,75.96194100000002,38,4965,1.0
médico,99.79036,75.72150400000002,10,706,1.0
oír,99.34853,75.70200899999998,97,691,1.0
planta,99.80354,75.646773,16,823,1.0
busca,99.05063291,75.56229499999998,25,916,1.0
responsable,99.80989,75.37384399999998,56,978,1.0
jornada,99.08424908,75.32185799999998,86,798,1.0
pena,99.8155,75.22113399999998,69,1163,1.0
golpe,98.7654321,75.217885,87,674,1.0
crítica,99.40652819,75.13340699999998,79,820,1.0
enorme,99.31506849,75.107414,1,1273,1.0
delante,97.66666667,75.039181,42,964,1.0
grave,99.3220339,74.996942,93,542,1.0
justo,99.11242604,74.95470300000002,65,562,1.0
similar,98.75389,74.938458,74,513,1.0
enfermedad,99.28571429,74.918963,49,758,1.0
tamaño,100.0,74.79224599999998,5,736,1.0
completo,99.15611814,74.730512,43,757,1.0
japón,99.27536232,74.594048,88,530,1.0
terrorismo,99.03537,74.457583,70,563,1.0
tecnología,99.27273,74.454334,74,755,1.0
simple,100.0,74.304873,82,739,1.0
considerado,99.44751381,74.256136,84,1165,1.0
candidato,99.38271605,73.811002,48,600,1.0
utilizar,99.66216,73.502332,4,631,1.0
fiesta,100.0,73.21640699999998,74,549,1.0
presentar,99.69512,73.008461,87,763,1.0
argentino,99.14529915,72.969471,72,749,1.0
llegada,98.86363636,72.878495,44,745,1.0
presión,98.84393,72.771273,67,699,1.0
contar,99.6978852,72.725785,42,1990,1.0
matrimonio,99.77974,72.64455600000002,66,1171,1.0
nación,100.0,72.602317,7,629,1.0
ampliación,99.32659933,72.566576,64,642,1.0
actitud,99.7005988,72.45285600000003,4,1231,1.0
preciso,99.69136,72.404119,36,553,1.0
escala,99.70326409,72.39761999999997,67,728,1.0
capítulo,99.72899729,72.01746899999998,46,533,1.0
método,99.66997,71.96548299999998,31,590,1.0
cumplir,100.0,71.796527,37,817,1.0
poeta,98.11321,71.64706600000002,8,1223,1.0
enmienda,96.21212121,71.53659499999998,32,1554,1.0
alguno,98.80952381,71.461864,38,1343,1.0
ejecutivo,99.42196532,71.445619,28,889,1.0
gobernador,98.52071006,71.390383,65,665,1.0
ganar,99.6124031,71.21817800000002,26,588,1.0
mente,99.66997,71.153195,89,705,1.0
sueño,99.33333,71.039474,31,622,1.0
ayuntamiento,99.01960784,71.036225,54,681,1.0
sábado,99.26471,71.026478,12,2734,1.0
religión,100.0,70.873768,84,785,1.0
tratar,98.94737,70.838027,4,905,1.0
jueves,98.58156028,70.57809499999998,14,680,1.0
atrás,100.0,70.539105,22,705,1.0
visión,99.39577,70.529358,82,947,1.0
judicial,99.13669065,70.461125,93,824,1.0
eta,47.78761062,70.454627,68,617,1.0
castilla,96.71641791,70.295419,65,1075,1.0
recibir,99.66777,70.282422,95,537,1.0
escena,98.47161572,70.272674,0,1025,1.0
poca,97.9798,70.262927,12,1504,1.0
generalmente,99.71098266,70.256429,23,957,1.0
venta,99.7191,70.178449,74,940,1.0
rápidamente,98.70968,70.1752,46,688,1.0
cumbre,99.35064935,70.14920699999999,20,5525,1.0
lenguaje,99.35691318,70.10696800000001,92,527,1.0
técnico,98.1289,70.045234,53,689,1.0
perro,99.02724,69.97050300000001,20,666,1.0
únicamente,99.35897,69.938012,5,1346,1.0
consumo,98.95104895,69.801547,96,611,1.0
jorge,94.07665505,69.609847,14,1050,1.0
formar,99.23954373,69.375908,47,916,1.0
ayudar,100.0,69.30117800000001,92,817,1.0
contacto,100.0,69.29792900000001,84,559,1.0
regional,99.10448,69.284932,24,627,1.0
diseño,99.36708861,68.98925899999999,72,542,1.0
tarea,99.375,68.973013,87,614,1.0
arriba,99.37304075,68.930774,93,597,1.0
tradición,99.65753,68.862542,54,607,1.0
frecuencia,98.85057471,68.852795,81,718,1.0
situado,99.01639,68.817054,88,1112,1.0
hospital,99.61538462,68.781313,15,511,1.0
cadena,98.11912226,68.664344,56,743,1.0
cantante,99.33481153,68.547374,69,56,0.0
rojo,99.57447,68.28094399999999,78,819,1.0
demanda,99.01315789,68.277695,79,1828,1.0
moral,98.96694,68.23220699999999,52,495,1.0
esperar,99.66101695,68.225708,17,714,1.0
código,100.0,68.176971,46,538,1.0
mirada,99.32886,68.15097800000001,32,2324,1.0
junta,98.61111111,68.10549,40,639,1.0
abierto,100.0,68.085995,46,942,1.0
entender,99.67320261,67.969025,72,738,1.0
guardia,99.40652819,67.917039,14,835,1.0
histórico,98.84057971,67.868301,73,591,1.0
documento,99.37304075,67.845557,55,1043,1.0
dolor,99.67320261,67.76107900000001,11,622,1.0
comer,99.65870307,67.735086,27,746,1.0
portavoz,100.0,67.715591,79,571,1.0
cambiar,100.0,67.68634899999999,44,935,1.0
luna,99.68454259,67.640861,56,715,1.0
diferente,99.68553459,67.60512,76,724,1.0
emperador,99.00662252,67.481652,5,812,1.0
contexto,99.10447761,67.44591199999999,40,611,1.0
occidental,99.07692,67.43291500000001,79,996,1.0
oriental,99.01381,67.33869,93,423,1.0
sección,99.68652,67.312696,38,759,1.0
doctor,99.64788732,67.270457,84,582,1.0
animal,99.22178988,67.202225,72,581,1.0
industrial,99.81024668,67.06900999999999,96,495,1.0
viento,99.34924,67.017023,15,1090,1.0
voto,98.86792,66.978034,53,656,1.0
papa,99.26254,66.948791,0,2740,1.0
labor,99.6941896,66.909801,0,1643,1.0
sierra,99.69136,66.906552,61,1873,1.0
virgen,99.30796,66.870812,55,885,1.0
caballero,99.66777409,66.79283199999999,64,691,1.0
festival,99.69230769,66.79283199999999,50,804,1.0
colaboración,99.68253968,66.757091,19,985,1.0
gustar,99.65635739,66.620627,85,1046,1.0
planeta,99.0099,66.276217,97,583,1.0
vivo,99.77477,66.113759,81,485,1.0
permitir,99.39577,66.061773,60,690,1.0
martes,99.67213,66.019534,51,875,1.0
física,99.37694704,65.824584,79,595,1.0
elemento,99.38650307,65.769349,55,664,1.0
estadio,99.02597403,65.697867,62,633,1.0
disposición,99.11504425,65.65562800000001,74,2588,1.0
peor,99.07919,65.636134,39,613,1.0
perder,99.31741,65.597144,38,783,1.0
rostro,99.72145,65.548406,71,487,1.0
carretera,99.65870307,65.528912,80,743,1.0
integración,98.62068966,65.44118399999999,0,1354,1.0
considerar,99.68454259,65.372952,21,1654,1.0
azul,99.58960328,65.333962,12,1237,1.0
clave,99.61904762,65.220242,7,669,1.0
financiación,96.15384615,65.139013,38,2750,1.0
colegio,98.87640449,65.038289,35,456,1.0
tratamiento,99.66216,64.96030999999999,17,810,1.0
pleno,98.9781,64.866084,68,738,1.0
rico,99.3994,64.50542800000001,63,803,1.0
sonido,99.65278,64.44369499999999,47,651,1.0
propósito,99.71264,64.417701,74,740,1.0
jugar,99.59839357,64.407954,7,639,1.0
audiencia,99.62264151,64.24224699999999,80,1044,1.0
mala,98.31649832,64.226001,6,1035,1.0
pedir,99.3266,64.14152299999999,32,570,1.0
parecer,99.79123,64.079789,41,590,1.0
nota,99.81238,63.959571,98,655,1.0
categoría,100.0,63.910833,2,1021,1.0
pacto,98.55596,63.777618,41,864,1.0
abajo,99.35691318,63.748376,96,1156,1.0
humanidad,100.0,63.745127,66,634,1.0
reducir,99.3994,63.663898,10,714,1.0
alianza,99.64157706,63.559925,27,628,1.0
marca,99.11111,63.537181,5,563,1.0
carga,99.5951417,63.49169300000001,15,754,1.0
elección,99.22779923,63.446205000000006,5,1063,1.0
puente,99.69325,63.377972,86,793,1.0
cuba,99.36708861,63.248006,94,604,1.0
intento,98.828125,62.984825,25,1019,1.0
global,100.0,62.955583,3,1095,1.0
alcalde,99.15254237,62.942586,63,797,1.0
combate,99.31506849,62.92634,30,507,1.0
debajo,98.01587302,62.819118,3,859,1.0
discurso,100.0,62.78012800000001,87,901,1.0
gusto,100.0,62.721644,21,943,1.0
oriente,99.64664,62.68265400000001,59,694,1.0
universal,99.24528,62.598176,62,717,1.0
torre,99.68354,62.354489,65,630,1.0
aceptar,100.0,62.347991,57,663,1.0
clima,99.00662252,62.25051600000001,91,669,1.0
india,99.19517103,62.214776,7,907,1.0
miércoles,98.73817,62.182284,26,838,1.0
excelente,100.0,62.029574,56,699,1.0
error,99.26739927,62.026325,12,828,1.0
extensión,99.79253112,61.772891,89,595,1.0
instrumento,99.08256881,61.733901,93,681,1.0
frontera,99.66555184,61.493464,53,703,1.0
tráfico,99.10448,61.301764,28,827,1.0
actuación,99.7005988,61.298515,12,673,1.0
secreto,99.35691,61.204289,71,519,1.0
actriz,98.90909091,61.067825,21,800,1.0
igualdad,99.67948718,61.019088,84,877,1.0
marido,99.33993,60.755906,19,1115,1.0
generación,99.66555184,60.71691600000001,31,1498,1.0
torneo,99.0991,60.596698,34,880,1.0
tradicional,98.6532,60.58695,70,668,1.0
distribución,99.66329966,60.577203,14,712,1.0
consiguiente,97.97687861,60.573954,98,676,1.0
resistencia,99.68153,60.502472,87,521,1.0
corriente,99.46949602,60.499223,58,695,1.0
diego,93.35548173,60.479728,71,863,1.0
madera,99.54887218,60.460233,85,613,1.0
poesía,99.12536,60.450486,57,776,1.0
doña,99.69040248,60.41799399999999,17,712,1.0
institución,99.59016393,60.401749,40,1033,1.0
próxima,99.11243,59.98910600000001,55,597,1.0
breve,99.32432432,59.97611,55,685,1.0
igualmente,100.0,59.93711999999999,49,737,1.0
hermana,98.41772152,59.89813,97,595,1.0
quizás,98.92857,59.88838199999999,59,565,1.0
rosa,99.62121,59.885133,6,816,1.0
reducción,99.64789,59.839645,51,688,1.0
biografía,99.67741935,59.839645,6,2124,1.0
recuerdo,99.62121,59.70318100000001,17,854,1.0
mensaje,98.65772,59.65444300000001,6,685,1.0
construir,99.68944099,59.59271,91,844,1.0
duque,99.63369963,59.537474,9,793,1.0
aeropuerto,99.21259843,59.394511,52,601,1.0
turismo,99.05063,59.303535,24,875,1.0
campeonato,98.97610922,59.297037,72,979,1.0
euro,100.0,59.297037,75,785,1.0
ángel,97.5,59.28404000000001,9,747,1.0
lectura,99.66216216,59.147576,56,726,1.0
plano,100.0,59.111835,47,745,1.0
extremo,99.38650307,58.767425,74,3243,1.0
estatuto,96.66666667,58.731684,47,1,1.0
enemigo,99.21259843,58.712189,74,804,1.0
pesca,98.25581,58.69919300000001,95,614,1.0
nombrado,99.39394,58.666701,74,904,1.0
academia,99.06542056,58.666701,70,781,1.0
recordar,99.66667,58.562728,18,1005,1.0
zorro,99.39024,58.465254,87,1208,1.0
cristo,98.05825243,58.387274,19,582,1.0
evidente,99.6978852,58.380776,54,749,1.0
ana,87.03703704,58.348284,94,677,1.0
ganado,98.96193772,58.143587,36,917,1.0
sesión,99.15014,58.026618000000006,86,539,1.0
aumentar,99.12790698,57.93239300000001,80,679,1.0
exposición,99.63768116,57.909648,38,725,1.0
continuación,99.42857143,57.704952,66,917,1.0
participar,100.0,57.425525,65,671,1.0
caer,99.20424403,57.30530600000001,62,865,1.0
artista,99.79757085,57.240323,46,706,1.0
esencial,95.8041958,57.201333,3,1021,1.0
desarrollar,99.66329966,56.980391,71,652,1.0
actuar,100.0,56.912159,28,666,1.0
máxima,99.67427,56.75295,70,650,1.0
federación,99.39393939,56.658725,66,2245,1.0
llamar,100.0,56.583994,27,651,1.0
agencia,99.65034965,56.53850600000001,10,643,1.0
normal,99.66887,56.40854,21,515,1.0
estabilidad,99.31034483,56.333809,47,971,1.0
inicio,99.3485342,56.112867,76,1823,1.0
monte,99.3994,56.112867,90,605,1.0
inferior,98.65319865,56.10312,95,660,1.0
cuidado,99.46949602,56.09987,84,1105,1.0
morir,99.32886,56.077126,41,522,1.0
escribir,99.30555556,56.06413000000001,88,729,1.0
negra,99.6633,56.031638,32,675,1.0
aprobación,98.75,55.960157,84,721,1.0
universo,99.4186,55.960157,0,1701,1.0
apoyar,99.12536443,55.937413,69,628,1.0
longitud,99.65277778,55.77495500000001,57,719,1.0
campeón,99.56427015,55.63524200000001,93,626,1.0
amenaza,100.0,55.593003,83,1125,1.0
coche,99.2481203,55.531269,13,774,1.0
diputado,99.13043478,55.277835,21,665,1.0
resolver,99.37888,55.216101,92,699,1.0
estrella,99.58158996,55.183609,40,2055,1.0
previsto,99.31741,55.151118,96,1598,1.0
inteligencia,99.15611814,55.134872,74,634,1.0
límite,99.70457903,54.972414,24,610,1.0
constante,99.64664311,54.910681,74,829,1.0
enseñanza,99.33333333,54.832701,30,702,1.0
inversión,98.828125,54.829452,99,700,1.0
bolsa,99.69325153,54.780714,17,640,1.0
editorial,99.58847737,54.71573100000001,68,801,1.0
pagar,99.6988,54.689738,49,673,1.0
triunfo,99.17808,54.589014,20,873,1.0
templo,99.21875,54.537028,27,658,1.0
juventud,98.95833333,54.537028,15,758,1.0
pobreza,100.0,54.51753299999999,36,632,1.0
legal,99.71830986,54.387567,91,817,1.0
semejante,99.81651,54.387567,6,791,1.0
ejecución,99.0,54.270597,16,1708,1.0
comienzo,99.04458599,54.234857,25,1095,1.0
ruta,97.89474,54.202365,94,822,1.0
dominio,99.69879518,54.127635,23,1339,1.0
contrato,98.96193772,54.072399,62,1161,1.0
amplio,99.58592133,54.059403,1,603,1.0
católica,100.0,53.926187,1,789,1.0
guitarra,99.0990991,53.887197,65,627,1.0
satisfacción,99.69697,53.80921800000001,94,789,1.0
producir,99.31507,53.747484,49,567,1.0
doce,97.5708502,53.68575,48,1016,1.0
rato,98.91068,53.676002,49,1035,1.0
prisión,99.34426,53.56553100000001,39,743,1.0
aparición,99.6742671,53.445313,13,993,1.0
preocupación,100.0,53.406323,77,684,1.0
ausencia,99.18256131,53.33809100000001,82,518,1.0
supremo,98.99194,53.143141,88,758,1.0
suma,99.6337,53.126896,58,601,1.0
abierta,99.22779923,53.081408,36,708,1.0
jardín,99.71346705,53.074909,73,644,1.0
corto,99.59266802,53.065162,78,630,1.0
apertura,100.0,53.03267,51,798,1.0
rica,100.0,52.98393299999999,62,1463,1.0
córdoba,97.71428571,52.954691,72,641,1.0
pérdida,99.05363,52.91895,29,636,1.0
tono,99.002,52.889708,10,678,1.0
virtud,99.3311,52.76299100000001,76,437,1.0
instante,98.85931559,52.69475799999999,37,795,1.0
usar,100.0,52.672014,27,827,1.0
inmigración,98.25783972,52.636274,29,1670,1.0
volumen,99.09366,52.412082,39,691,1.0
mínimo,99.16782,52.324355,73,1094,1.0
identidad,99.40944882,52.213884,10,684,1.0
corona,99.29824561,52.204136,89,826,1.0
nuevamente,99.69512,52.103413,54,810,1.0
gas,99.57173448,51.700518,53,546,1.0
aplicar,98.97610922,51.525063,64,641,1.0
oficina,100.0,51.502319,85,579,1.0
caja,98.89298893,51.49907,28,541,1.0
irlanda,97.92284866,51.492572,55,534,1.0
alcance,99.38398357,51.362606,15,824,1.0
tomado,98.02632,51.339862,74,1016,1.0
masa,98.8024,51.32686500000001,8,617,1.0
permanente,100.0,51.222892,34,740,1.0
solidaridad,99.7076,51.174155,67,600,1.0
directo,99.43181818,51.151411,94,1013,1.0
proteger,99.67213,51.118919,73,670,1.0
habitación,98.98648649,51.066933,60,677,1.0
fenómeno,99.33333333,51.014946,0,1556,1.0
presentación,98.69707,50.998701,48,532,1.0
adoptar,99.73474801,50.940216,36,601,1.0
entorno,98.77675841,50.855738,36,565,1.0
dispuesto,100.0,50.787506,42,499,1.0
alemana,99.03225806,50.65429,0,2539,1.0
absoluto,99.67213115,50.647792,27,715,1.0
belleza,98.97959184,50.46584,69,503,1.0
definición,99.35275081,50.46584,19,561,1.0
comprender,99.35483871,50.34887,56,1431,1.0
continuar,98.54545455,50.205907,67,506,1.0
bosque,100.0,50.186413,79,683,1.0
pan,99.23518,50.166918,14,838,1.0
aparte,96.07843137,50.137675,1,892,1.0
periódico,98.90909,50.11818,94,797,1.0
destacar,99.64539007,50.030453,20,574,1.0
nacimiento,100.0,49.984965,62,935,1.0
anual,99.69325153,49.971968,51,1028,1.0
comida,99.66666667,49.939477,61,941,1.0
equilibrio,99.6742671,49.932979,74,614,1.0
mexicano,97.82135,49.92648,99,590,1.0
latina,99.01960784,49.803012,22,553,1.0
catalán,98.66666667,49.770521,67,621,1.0
intentar,98.87640449,49.738029,47,827,1.0
físico,99.36708861,49.728282,38,653,1.0
concepción,99.61685824,49.705538,7,1020,1.0
naturalmente,99.68652,49.69904,64,773,1.0
arquitectura,99.41690962,49.686043,12,582,1.0
salvador,99.39577,49.640555,12,638,1.0
reciente,100.0,49.62106,64,874,1.0
petición,99.34641,49.533333,15,1242,1.0
inicial,99.78947368,49.533333,45,555,1.0
vuelo,99.72184,49.520336,97,751,1.0
posterior,99.67949,49.497592,64,794,1.0
reconocer,99.68847,49.445606,50,815,1.0
impacto,99.3220339,49.435858,26,641,1.0
tercero,99.35691,49.42936,7,1648,1.0
directa,98.45201238,49.367626,41,694,1.0
nuclear,99.4614,49.36437700000001,20,723,1.0
famoso,99.67320261,49.35138,78,638,1.0
margen,98.55072,49.318889,79,668,1.0
motor,99.65517,49.299394,64,675,1.0
asesinato,98.62068966,49.283148,27,1044,1.0
romano,99.60396,49.270151,67,603,1.0
lima,99.33774834,49.182424,90,2161,1.0
progreso,99.70238,49.169428,99,1561,1.0
metro,98.20789,49.166179,6,815,1.0
árbol,100.0,49.104445,1,2332,1.0
tendencia,100.0,49.101196,88,697,1.0
abrir,99.37759336,49.075202,97,747,1.0
pareja,99.68652,49.058957,69,551,1.0
mejora,99.37695,49.032963,8,974,1.0
colección,99.35897436,49.016718,14,744,1.0
búsqueda,99.63768116,49.013468,44,554,1.0
salvo,97.51773,48.915994,33,839,1.0
accidente,98.046875,48.81527,84,939,1.0
alegría,99.70588235,48.812021,81,995,1.0
regreso,99.36306,48.799024,28,987,1.0
brazo,99.61165049,48.779529,94,657,1.0
asegurar,100.0,48.753536,79,696,1.0
laboral,99.32885906,48.698301,30,711,1.0
decreto,99.21414538,48.594328,81,629,1.0
ruso,99.58159,48.555338,30,652,1.0
rápido,98.28571,48.441618,4,577,1.0
obispo,98.3871,48.402628,91,593,1.0
comarca,97.09090909,48.399379,51,1872,1.0
calor,99.65156794,48.347392,29,526,1.0
acabar,99.8015873,48.233672,22,790,1.0
estudiar,100.0,48.230423,92,636,1.0
concreto,98.3713355,48.20118,90,574,1.0
basada,93.11377246,48.194682,61,646,1.0
avión,99.36908517,48.100456,40,813,1.0
bandera,99.64028777,48.090709,60,558,1.0
familiar,99.03100775,48.07121400000001,91,508,1.0
fortuna,99.66101695,48.022477,68,954,1.0
metal,99.40476,47.912006,89,1214,1.0
pago,99.17526,47.866517,5,677,1.0
hierro,99.35064935,47.775541,33,586,1.0
derrota,100.0,47.746299,82,522,1.0
periodista,98.84393,47.739801,1,1990,1.0
mira,100.0,47.736551,32,767,1.0
frío,99.79209979,47.736551,26,947,1.0
eficaz,97.94117647,47.629329,94,727,1.0
deportivo,98.77300613,47.583841,27,1805,1.0
ramón,95.10703,47.54160200000001,40,805,1.0
noticia,99.09639,47.51560900000001,54,572,1.0
sombra,99.67846,47.505862,72,570,1.0
invierno,99.27272727,47.505862,52,705,1.0
facultad,99.67213115,47.431131,17,623,1.0
agrícola,99.32885906,47.398639,67,666,1.0
gira,97.66666667,47.336906,29,797,1.0
abogado,99.15730337,47.310912,71,535,1.0
moderna,99.00662,47.268673,49,697,1.0
aragón,90.87136929,47.206939,62,1096,1.0
terminar,99.08815,47.193943,69,532,1.0
piel,99.78587,47.154953000000006,61,488,1.0
organismo,99.67105,47.154953000000006,64,699,1.0
reserva,99.61315,47.135458,68,739,1.0
firme,99.57173448,47.08997,46,713,1.0
caída,99.65277778,47.002243,92,972,1.0
acaso,92.04545455,46.998994,93,7392,0.0
creer,99.44598338,46.982748,5,784,1.0
perspectiva,99.32886,46.966502,20,643,1.0
responder,99.42693,46.950256,7,804,1.0
entidad,99.29577465,46.921014,7,763,1.0
absoluta,99.12280702,46.914516,63,747,1.0
hambre,98.87640449,46.856031,60,705,1.0
escenario,99.05660377,46.839785,63,695,1.0
sacar,99.59839,46.839785,62,608,1.0
raza,100.0,46.807294,14,628,1.0
sentimiento,100.0,46.771553,82,592,1.0
griego,99.82698962,46.771553,95,780,1.0
moneda,99.58506,46.768304,15,578,1.0
nave,98.32776,46.66758,43,1292,1.0
firma,98.72204473,46.599348,25,578,1.0
defender,98.68421053,46.563607,30,1261,1.0
puesta,99.24812,46.560358,7,810,1.0
leer,98.14126394,46.557109,41,1444,1.0
idioma,100.0,46.462884,61,575,1.0
introducción,99.35483871,46.43689000000001,97,1755,1.0
mandato,97.68212,46.430392,21,943,1.0
temperatura,99.6988,46.430392,15,785,1.0
biblioteca,98.90510949,46.384904,21,688,1.0
ruido,98.29352,46.368658,5,575,1.0
partida,99.62825,46.193204,16,663,1.0
circulación,99.07120743,46.00800200000001,16,982,1.0
argumento,98.71794872,45.998255,29,869,1.0
lago,99.43181818,45.930022,83,532,1.0
oferta,99.56616,45.878036,55,649,1.0
publicación,99.32432,45.868289,75,644,1.0
gloria,99.8065764,45.858541,27,1535,1.0
positivo,99.29329,45.82605,99,668,1.0
asistencia,99.64412811,45.770814,22,588,1.0
británica,99.67845659,45.764316,73,862,1.0
entrenador,99.31271478,45.741572,36,682,1.0
normalmente,100.0,45.738322,58,749,1.0
compañero,99.69230769,45.683087,93,794,1.0
medicina,99.67742,45.673339,99,640,1.0
personalidad,99.3921,45.67009,40,825,1.0
terrible,98.75887,45.653844,93,581,1.0
cárcel,99.66887417,45.601858,85,729,1.0
cama,99.39637827,45.514131,72,745,1.0
pecho,99.86541,45.40690900000001,46,771,1.0
servir,99.34641,45.341926,1,1291,1.0
rural,99.04459,45.23795300000001,70,633,1.0
apartado,98.67674858,45.202212,36,696,1.0
reacción,99.69789,45.120983,19,703,1.0
sencillo,100.0,45.05925,64,881,1.0
granada,99.3993994,44.965024,78,756,1.0
punta,99.57447,44.909789,73,1362,1.0
composición,98.96907216,44.825311,42,946,1.0
navarra,87.58865,44.815563,83,625,1.0
seguido,99.72184,44.78957,14,691,1.0
impresión,100.0,44.682348,49,587,1.0
cien,99.07120743,44.666102,67,625,1.0
conducta,98.88059701,44.633611,8,757,1.0
cuadro,99.67532468,44.607617,90,531,1.0
vivienda,100.0,44.59787,25,738,1.0
california,98.51190476,44.565378,85,1309,1.0
negocio,99.2674,44.510143,24,861,1.0
bibliografía,99.71751412,44.503644,83,1015,1.0
vigor,96.997,44.422416,26,869,1.0
empezar,99.05063291,44.2892,97,2398,0.0
ofrecer,99.33993,44.282702,93,636,1.0
geografía,98.84615385,44.256709,55,658,1.0
incremento,99.36305732,44.227466,56,594,1.0
triste,99.11765,44.207972,39,731,1.0
sentir,98.63946,44.191726,87,618,1.0
fama,98.26989619,44.188477,93,778,1.0
expresar,99.42028986,44.172231,9,1239,1.0
riqueza,100.0,44.152736,14,1038,1.0
excepción,99.70414201,44.142988,86,1427,1.0
cerrado,99.04891304,44.110497,56,636,1.0
senado,96.49682,44.081255,79,542,1.0
lleno,98.65900383,44.01952100000001,63,1155,1.0
abandonar,99.65397924,44.009773,60,919,1.0
ronda,99.20949,43.990278,10,1268,1.0
conclusión,99.69604863,43.977282,57,691,1.0
plena,99.6633,43.909049,74,587,1.0
significado,99.46524,43.9058,13,872,1.0
pintura,99.70238,43.827821,1,927,1.0
patrimonio,99.08537,43.785582,13,51,0.0
escudo,99.69604863,43.769336,95,792,1.0
café,98.40255591,43.759588,30,616,1.0
jurídico,99.13043478,43.75309,69,736,1.0
sexual,100.0,43.668612,86,582,1.0
zapatero,98.82812,43.645868,28,957,1.0
suiza,99.0566,43.610127,16,595,1.0
ciclo,99.32432432,43.606878,57,540,1.0
concierto,99.35064935,43.56139,10,602,1.0
financiera,99.64912281,43.554892,65,581,1.0
evaluación,99.19678715,43.551643,55,801,1.0
explicar,99.28315412,43.541895,61,574,1.0
provincial,98.20467,43.502905,56,724,1.0
coronel,99.71014493,43.424926,16,836,1.0
raíz,99.62547,43.36969000000001,65,684,1.0
científico,99.81132075,43.346946,45,1080,1.0
adhesión,98.98989899,43.262468,94,1065,1.0
colonia,99.66887417,43.226727,6,587,1.0
temor,99.64912,43.203983,52,798,1.0
democrático,98.6013986,43.139,13,666,1.0
extra,98.90310786,43.074017,91,1650,1.0
continente,99.35275081,43.057771,60,1309,1.0
episodio,99.4100295,43.028529,30,680,1.0
exactamente,98.9010989,43.01553300000001,70,554,1.0
renta,99.63235,42.970044,36,1195,1.0
habitual,98.97260274,42.960297,85,1174,1.0
placer,100.0,42.94080200000001,46,590,1.0
núcleo,100.0,42.843327,17,985,1.0
serio,99.67427,42.788092,46,851,1.0
privada,99.13295,42.765348,60,737,1.0
complejo,99.39271255,42.7556,74,1413,1.0
barco,99.32432432,42.739355,80,556,0.0
retirada,98.44358,42.674371,11,685,1.0
útil,99.81378,42.628883,44,654,1.0
hotel,99.32885906,42.606139,14,606,1.0
beneficio,99.06542056,42.580146,2,857,1.0
registro,100.0,42.495668,65,1274,1.0
profundo,99.6008,42.48917,71,714,1.0
atentado,99.62406015,42.427436,10,722,1.0
quedar,99.67846,42.424187,4,1504,1.0
deporte,98.29931973,42.414439,85,531,1.0
comunista,99.29906542,42.401443,38,756,1.0
feliz,98.64864865,42.394944,78,593,1.0
privado,99.68553,42.391695,29,463,1.0
comandante,98.98648649,42.381948,79,1173,1.0
culpa,99.77728285,42.365702,40,642,1.0
revisión,99.6875,42.352705,56,1892,1.0
luchar,100.0,42.339709,94,868,1.0
cumplimiento,99.07120743,42.33321,18,2892,1.0
liberal,99.39759036,42.284473,32,801,1.0
ritmo,99.0228,42.277975,69,629,1.0
obligado,99.80769,42.268227,16,764,1.0
fórmula,99.39148073,42.216241,87,652,1.0
espiritual,99.00662252,42.19674600000001,56,503,1.0
montaña,99.6904,42.151258,18,713,1.0
convención,99.07692308,42.14476,48,662,1.0
plenamente,98.75776,42.138261,96,787,1.0
avenida,100.0,42.10577,53,759,1.0
rápida,98.99329,42.070029,34,624,1.0
patria,99.62825,42.050534000000006,62,842,1.0
utilización,99.08257,42.044036,20,783,1.0
petróleo,98.9726,42.005046,95,628,1.0
matar,99.36909,41.972554,34,768,1.0
potencia,99.34641,41.959558,2,740,1.0
letra,99.5157385,41.930316,49,835,1.0
víctima,99.37695,41.920568,3,894,1.0
obligación,99.1018,41.849087,7,828,1.0
ocurrido,98.75776,41.790602,81,1252,1.0
titular,99.04762,41.784104,80,683,1.0
financiero,98.91304348,41.72237,38,551,1.0
comisaria,98.42767296,41.62164600000001,29,1143,1.0
penal,99.0,41.585905,3,2102,1.0
ventana,99.375,41.56641,68,751,1.0
crimen,99.0881459,41.559912,43,632,1.0
interesante,99.43019943,41.556663,79,502,1.0
descripción,100.0,41.436444,28,874,1.0
desgracia,99.63099631,41.397454,28,521,1.0
totalidad,99.7076,41.361714,8,616,1.0
seguida,99.30314,41.33247100000001,27,1102,1.0
dulce,99.42418426,41.290232,95,642,1.0
conforme,100.0,41.247993,46,845,1.0
enfoque,98.59649123,41.241495,70,479,1.0
individuo,98.71382637,41.111529,65,767,1.0
duración,99.39209726,41.075788,15,599,1.0
conversación,100.0,41.046546,85,549,1.0
coalición,94.55587393,40.95232100000001,17,1019,1.0
círculo,99.42965779,40.90358300000001,32,796,1.0
alcanzado,99.05956113,40.854846,27,955,1.0
quinto,98.0695,40.79961,37,692,1.0
estatal,98.80597015,40.744375,18,1547,1.0
extranjero,98.92086331,40.669644,99,660,1.0
frase,99.0797546,40.650149,33,668,1.0
tasa,96.09929,40.643651,52,849,1.0
símbolo,99.34211,40.624156,28,555,1.0
liberación,99.68652038,40.60791,94,958,1.0
amistad,100.0,40.549426,68,763,1.0
cifra,99.32659933,40.520183,75,1440,1.0
órgano,99.63899,40.438954,39,625,1.0
impuesto,99.58071279,40.425958,87,960,1.0
primavera,99.46996,40.406463,22,782,1.0
explotación,99.07407407,40.399965,30,2230,1.0
tren,100.0,40.396715,76,672,1.0
arma,99.3220339,40.393466,33,805,1.0
duro,99.10071942,40.390217,50,708,1.0
comunicado,99.54022989,40.38047,93,651,1.0
ventaja,99.32432,40.370722,33,715,1.0
sensación,98.99329,40.344729,55,762,1.0
observar,99.30796,40.292743,5,2169,1.0
digital,99.23664122,40.289493,27,786,1.0
compuesto,99.79079498,40.282995,22,592,1.0
sujeto,99.43609,40.279746,22,743,1.0
destrucción,99.64788732,40.247254,52,902,1.0
señal,99.29825,40.240756,82,654,1.0
votar,99.30556,40.205015,62,735,1.0
carmen,96.72131148,40.205015,54,2163,1.0
demostrar,99.0881459,40.162776,41,782,1.0
málaga,93.37979094,40.156278,64,711,1.0
castro,95.85987261,40.052305,35,608,1.0
lógica,100.0,40.016565,88,763,1.0
individual,99.63235294,40.006817,76,1180,1.0
gracia,99.44598338,39.993821,30,660,1.0
elaboración,100.0,39.964578,33,631,1.0
mirar,98.80478,39.951582,85,522,1.0
costumbre,99.39759036,39.932087,88,739,1.0
determinado,99.36305732,39.928837,52,1392,1.0
determinar,98.71794872,39.915841,58,875,1.0
cantón,91.78082192,39.860605,69,1416,1.0
norma,99.52719,39.850858,70,849,1.0
entrevista,99.3902439,39.834612,76,762,1.0
factor,99.38271605,39.776127,82,634,1.0
compra,99.27797834,39.753383,19,776,1.0
alonso,89.45686901,39.724141,96,502,1.0
residencia,99.38462,39.707895,81,1593,1.0
infantil,100.0,39.704646,77,790,1.0
ocupación,98.9011,39.694898,15,2555,1.0
convertir,99.38271605,39.691649,46,814,1.0
controlar,98.96907216,39.655909,50,1066,1.0
orquesta,98.52507,39.61367,56,601,1.0
ojo,99.58333,39.571431,21,597,1.0
italiana,99.35483871,39.561683,34,703,1.0
seno,97.95222,39.548687,8,827,1.0
catedral,99.62264151,39.538939,65,754,1.0
recién,99.38272,39.516195,5,686,1.0
reconocido,98.95105,39.470707,94,862,1.0
creciente,99.03100775,39.438215,67,734,1.0
conformidad,98.67109635,39.415471,99,705,1.0
inmediato,99.66216216,39.405724,50,1257,1.0
árabe,98.93617021,39.356987,40,686,1.0
realización,98.66221,39.350488,46,765,1.0
cita,99.27272727,39.311498,88,691,1.0
espada,99.44444444,39.308249,98,1312,1.0
avance,99.67845659,39.256263,44,668,1.0
mezcla,98.50746,39.243266,46,801,1.0
pasión,99.66555,39.220522,65,821,1.0
delito,98.1595092,39.204276,51,589,1.0
variedad,99.11243,39.19128,77,720,1.0
conquista,99.69512195,39.168536,47,596,1.0
escuchar,100.0,39.110051,11,1012,1.0
lluvia,99.25093633,39.090556,31,756,1.0
gol,98.75389408,39.084058,87,530,1.0
playa,99.03226,39.084058,18,613,1.0
deuda,99.00332226,39.041819,72,621,1.0
doctrina,99.66216216,39.03857,35,864,1.0
hacienda,99.10979228,39.019075,78,758,1.0
concurso,99.04458599,38.853368,7,555,1.0
recuperar,98.95833,38.781887,40,563,1.0
amo,99.0228013,38.716903,67,648,1.0
índice,99.29824561,38.684412,17,744,1.0
claridad,99.39759036,38.612931,18,680,1.0
cocina,99.40298507,38.593436,26,895,1.0
regular,99.44751,38.590187,9,662,1.0
venir,99.77221,38.583688,41,2121,1.0
comunitario,99.39637827,38.564193,67,971,1.0
gato,99.60159363,38.557695,94,876,1.0
hogar,99.72144847,38.554446,72,651,1.0
promover,97.65101,38.505709,96,1000,1.0
aprobado,98.94366197,38.502459,21,527,1.0
sexo,100.0,38.49921,54,2084,1.0
escrita,98.22064057,38.417981,43,909,1.0
fácilmente,99.27272727,38.401736,46,675,1.0
península,99.04459,38.365995,1,1057,1.0
intelectual,98.29351536,38.304261,75,1534,1.0
recuperación,100.0,38.297763,54,610,1.0
superar,99.67532,38.245776,47,1073,1.0
eficacia,98.96193772,38.216534,9,743,1.0
cuenca,99.3883792,38.187292,36,487,1.0
pintor,99.68051,38.180793,77,719,1.0
trato,99.05956,38.161298,43,871,1.0
cola,99.77777778,38.128807,62,719,1.0
gana,98.70967742,38.119059,12,675,1.0
dificultad,99.68847352,38.086568,43,796,1.0
negociación,99.36909,38.067073,8,698,1.0
armada,99.43181818,38.037831,9,676,1.0
niña,99.66777,38.005339,6,811,1.0
máquina,99.2381,37.930609,36,755,1.0
trono,99.35691,37.852629,55,799,1.0
ideal,99.40711462,37.842881,97,839,1.0
dimensión,99.6742671,37.83638300000001,60,1021,1.0
postura,100.0,37.761653,74,507,1.0
promoción,98.97959,37.755154,17,1227,1.0
castellano,98.72881356,37.667427,76,792,1.0
observación,99.6587,37.641434,61,987,1.0
incluir,99.12280702,37.631686,63,865,1.0
autonomía,100.0,37.61869,69,598,1.0
noble,99.11504,37.560205,7,957,1.0
caza,99.59100204,37.537461,9,743,1.0
enviado,99.41520468,37.537461,9,585,1.0
sorpresa,99.38462,37.524464,67,594,1.0
científica,99.73958333,37.404246,57,749,1.0
urbano,99.11972,37.358758,80,875,1.0
coste,91.8699187,37.30677100000001,66,552,1.0
marina,99.33555,37.293775,62,2081,1.0
cueva,99.6742671,37.284027,70,653,1.0
compositor,99.62192817,37.248286,66,788,1.0
espectáculo,99.32432432,37.180054,18,690,1.0
seguramente,99.1404,37.176805,31,578,1.0
ecuador,99.05362776,37.170307,14,873,1.0
homenaje,98.43260188,37.163809,38,1698,1.0
viva,100.0,37.128068,88,738,1.0
césar,97.26027397,37.102075,53,549,1.0
religiosa,99.631,37.085829,92,1357,1.0
coordinación,98.7012987,36.988354,67,751,1.0
mediterráneo,100.0,36.972108,23,674,1.0
probable,100.0,36.796654,9,819,1.0
cultivo,100.0,36.793405,46,2624,1.0
opción,99.36306,36.780408,20,660,1.0
relativo,99.58848,36.780408,3,1126,1.0
rayo,99.37695,36.770661,18,472,1.0
mexicana,97.25086,36.712176,50,661,1.0
protagonista,98.72611,36.692681,78,776,1.0
expansión,99.68944099,36.679685,60,737,1.0
fracaso,99.64788732,36.666688,50,1048,1.0
instancia,98.14814815,36.656941,36,853,1.0
pedido,98.9547,36.656941,49,656,1.0
intercambio,98.77675841,36.617951,83,610,1.0
comenzar,100.0,36.595207,70,784,1.0
celebrar,99.6996997,36.578961,35,609,1.0
clásico,98.97260274,36.536722,17,912,1.0
consciente,98.68852459,36.484736,7,2142,1.0
potencial,99.57265,36.471739,41,746,1.0
denominado,99.6941896,36.46849,9,1605,1.0
condado,97.71986971,36.458742,21,893,1.0
territorial,98.47561,36.332025,18,595,1.0
mental,99.36575,36.289786,52,715,1.0
decidir,98.97610922,36.260544,24,598,1.0
ciudadano,98.56630824,36.260544,33,970,1.0
treinta,99.68944,36.244298,28,596,1.0
manifiesto,99.1274,36.189063,81,2003,1.0
cuello,98.97119342,36.163069,93,607,1.0
recorrido,99.34211,36.111083,61,567,1.0
contribuir,98.52941176,36.072093,56,769,1.0
vacío,98.4127,36.010359,2,1067,1.0
descubierto,99.64664311,35.951875,25,982,1.0
mancha,98.76923,35.912885,47,858,0.0
combatir,99.64788732,35.906386,9,737,1.0
notable,99.61832,35.906386,32,1489,1.0
impedir,99.33993399,35.903137,96,615,1.0
dueño,98.5915493,35.883642,61,505,1.0
delegación,99.00332226,35.880393,26,563,1.0
alternativa,99.71509972,35.84790200000001,35,1171,1.0
elegir,99.62546816,35.812161,33,732,1.0
terror,99.42857,35.795915,32,560,1.0
transición,99.0625,35.760175,81,828,1.0
radical,99.04459,35.74068,27,697,1.0
rival,99.6124,35.730932,34,727,1.0
minuto,99.68847,35.714686,19,962,1.0
ingeniería,98.47094801,35.691942,50,1395,1.0
impulso,99.23224568,35.65295300000001,18,539,1.0
agenda,100.0,35.519737,63,789,1.0
chileno,99.81378026,35.513239,41,1187,1.0
vehículo,99.09091,35.513239,44,658,1.0
temporal,99.12281,35.500242,92,977,1.0
solar,99.85316,35.487246,17,583,1.0
mecanismo,99.07407,35.428761,62,815,1.0
piano,99.06832,35.406017,83,453,1.0
gasto,99.08536585,35.402768,90,660,1.0
arco,99.19191919,35.373525,70,740,1.0
des,49.67320261,35.35403,88,2654,0.0
mostrar,98.90909,35.347532,81,700,1.0
fruto,99.39393939,35.295546,86,923,1.0
oficialmente,98.92857,35.282549,34,1119,1.0
israelí,98.46743295,35.253307,48,774,1.0
piso,99.34853,35.237061,24,659,1.0
romana,99.20319,35.227314,21,683,1.0
pacífico,99.67213,35.19482199999999,0,1551,1.0
parecido,99.12536,35.133088,28,706,1.0
porcentaje,99.69136,35.113593,58,2109,1.0
franco,99.10313901,35.0876,23,564,1.0
batería,99.34065934,35.051859,49,785,1.0
moderno,100.0,35.035613,84,716,1.0
arena,98.86792453,35.00962,0,1006,1.0
leche,99.46949602,34.967381,16,659,1.0
lanzamiento,99.31034483,34.95763400000001,68,626,1.0
convenio,98.56630824,34.954384999999995,71,972,1.0
pelo,99.57265,34.941388,1,1208,1.0
canto,99.58847737,34.938139,65,627,1.0
tocar,99.67213,34.908897,52,684,1.0
fundador,99.33333333,34.749688,77,1156,1.0
olvidar,99.69512,34.697702,18,700,1.0
rosario,99.26199,34.62622,16,947,1.0
elevado,100.0,34.574234000000004,48,684,1.0
piloto,98.44961,34.502752,62,634,1.0
atlético,98.89705882,34.489756,58,1464,1.0
traducción,99.41003,34.480008000000005,68,884,1.0
pura,99.39024,34.454015000000005,95,608,1.0
princesa,100.0,34.450765999999994,85,563,1.0
sufrir,100.0,34.43452,17,522,1.0
facilitar,98.73417722,34.405278,88,755,1.0
posesión,98.12734,34.385783,11,673,1.0
celebración,99.13793103,34.340295000000005,93,593,1.0
capilla,99.23664122,34.324049,2,774,1.0
colega,99.20318725,34.301305,3,872,1.0
preparación,99.16201,34.262315,40,479,1.0
religioso,99.70674,34.259066,40,657,1.0
ropa,99.39759,34.249319,5,526,1.0
jurado,98.67109635,34.226574,99,777,1.0
cierre,100.0,34.223325,40,676,1.0
aprender,100.0,34.171339,71,713,1.0
salamanca,98.60724,34.155093,25,1052,1.0
multitud,98.44237,34.155093,56,655,1.0
expedición,98.84393064,34.145346,32,778,1.0
consenso,96.0,34.070615000000004,64,1221,1.0
tabla,99.64851,34.057619,50,894,1.0
correr,99.59183673,34.054369,83,898,1.0
encargado,99.40828402,34.034874,16,891,1.0
felicidad,100.0,34.028376,10,891,1.0
débil,99.05362776,33.992635,14,625,1.0
rechazo,99.67105,33.973141,78,738,1.0
adecuado,99.34640523,33.953646,91,966,1.0
productor,99.80159,33.921154,22,724,1.0
dirigente,99.62192817,33.914656,36,989,1.0
noroeste,98.64865,33.865919,66,803,1.0
crédito,99.45945946,33.852922,29,643,1.0
invasión,99.36708861,33.800935,79,676,1.0
oído,99.04762,33.713208,63,651,1.0
ferrocarril,99.13294798,33.690464,52,578,1.0
teléfono,99.33555,33.664471,94,605,1.0
diversidad,99.70588235,33.635228999999995,0,1825,1.0
eléctrica,99.43502825,33.605986,64,691,1.0
culto,98.96551724,33.563747,10,522,1.0
eliminar,99.34210526,33.541003,74,602,1.0
infancia,99.00398406,33.508512,60,641,1.0
agente,98.55491329,33.485768,61,841,1.0
bretaña,93.79562044,33.443529,53,845,1.0
prioridad,99.32886,33.394791,91,596,1.0
censo,96.74267101,33.378546,35,767,1.0
salón,98.81306,33.349303000000006,61,533,1.0
trayectoria,99.01316,33.310313,71,782,1.0
corrupción,99.65034965,33.274573,49,629,1.0
pared,99.21384,33.235583,12,626,1.0
avanzar,99.66329966,33.147856,8,1014,1.0
flor,99.62121212,33.141357,24,718,1.0
activo,99.78586724,33.086122,90,545,1.0
sonrisa,99.69136,33.082873,21,939,1.0
cerro,96.92832765,33.037385,24,656,1.0
reforzar,99.66997,33.021139,25,908,1.0
crítico,99.81132075,33.014641,99,580,1.0
condena,98.97959184,33.011391,66,1091,1.0
telefónica,99.44598,32.9789,67,604,1.0
inglesa,98.85931559,32.956156,42,595,1.0
acusado,99.30555556,32.952907,73,1028,1.0
legislatura,97.63033175,32.926913,30,709,1.0
paquete,99.34641,32.90092,49,782,1.0
terrorista,100.0,32.90092,67,992,1.0
ilegal,99.06832298,32.777452000000004,57,730,1.0
distinto,99.32432432,32.770954,65,938,0.0
comprar,99.38080495,32.770954,12,650,1.0
explicación,98.82352941,32.722217,28,737,1.0
aprovechar,98.91008174,32.70922,35,833,1.0
daño,100.0,32.699473,72,682,1.0
oscuro,99.05363,32.699473,80,819,1.0
loco,99.38650307,32.692974,99,788,1.0
rueda,99.39759,32.689725,51,776,1.0
tensión,98.24561,32.644237,53,594,1.0
oficio,100.0,32.644237,63,507,1.0
leyenda,100.0,32.537015000000004,22,607,1.0
hipótesis,100.0,32.530517,96,864,1.0
juzgado,99.70845481,32.524018,63,821,1.0
salvar,99.67532,32.520769,99,666,1.0
espalda,100.0,32.43954,1,896,1.0
gesto,99.66777409,32.351813,40,590,1.0
regla,99.44134,32.338817,84,678,1.0
permiso,99.34853,32.293329,55,664,1.0
civilización,100.0,32.290079,58,730,1.0
discusión,98.90510949,32.290079,79,742,1.0
acompañado,99.35622318,32.270585,32,662,1.0
cubierta,99.33993399,32.267335,41,601,1.0
descenso,98.66666667,32.264086,90,795,1.0
vecino,99.57895,32.251090000000005,56,606,1.0
bienestar,99.67213115,32.166612,83,656,1.0
futbolista,99.10447761,32.147117,50,728,1.0
sacerdote,99.28315,32.121124,54,976,1.0
medalla,98.24561,32.085383,19,1045,1.0
soledad,98.92473,32.05614,70,972,1.0
consejero,99.55156951,31.919676000000006,39,547,1.0
interno,99.61612284,31.909929,80,582,1.0
publicidad,100.0,31.887185,41,503,1.0
comedia,99.35483871,31.887185,1,1029,1.0
tesis,97.38562,31.874188,92,999,1.0
programación,99.04459,31.851444,73,959,1.0
criterio,97.95918367,31.815703000000006,76,585,1.0
cabecera,99.36305732,31.799457,13,843,1.0
condenado,99.15254237,31.783212,17,1131,1.0
pista,98.15951,31.770215000000004,60,1503,1.0
fusión,98.75389408,31.766966,6,1238,1.0
pilar,99.26471,31.753969,99,570,1.0
abordar,99.31740614,31.737724,1,4489,1.0
traje,99.35897,31.71173,95,638,1.0
querer,99.631,31.708481,46,852,1.0
comparación,99.68944099,31.698734,97,673,1.0
vital,99.39577,31.695485,29,774,1.0
huelga,100.0,31.685737,60,672,1.0
monasterio,97.7591,31.685737,42,800,1.0
occidente,100.0,31.685737,19,820,1.0
escapar,99.69230769,31.666242,35,821,1.0
cerebro,98.3713355,31.659744,84,621,1.0
fábrica,99.37629938,31.624003,3,721,1.0
introducir,99.67845659,31.611007,20,701,1.0
contribución,99.30795848,31.601259,43,812,1.0
brillante,99.33110368,31.594761,39,649,1.0
paciente,98.9858,31.542774,94,974,1.0
existir,98.6440678,31.529778000000004,43,626,1.0
cohesión,96.54178674,31.490788,68,655,1.0
cáncer,99.40357853,31.455047,79,720,1.0
regresar,98.25175,31.412808,85,662,1.0
separación,99.6587,31.390064,77,1183,1.0
licencia,98.70550162,31.386815,24,1722,1.0
single,55.72816,31.370569,86,847,1.0
pop,90.0,31.266596000000003,15,728,1.0
conservación,99.33333333,31.260098,27,5153,1.0
salto,99.63303,31.260098,87,855,1.0
teniente,99.64413,31.250351,75,692,1.0
acceder,99.38650307,31.240603000000004,10,1542,1.0
vestido,100.0,31.224357,33,657,1.0
soviética,97.24771,31.21461,59,666,1.0
denominación,98.57142857,31.211361,22,793,1.0
soberanía,98.63946,31.204862,85,724,1.0
quinta,98.81657,31.201613,44,1252,1.0
esencia,94.31137725,31.143129,68,694,1.0
americano,99.30434783,31.139879,65,875,1.0
chico,99.69879518,31.13663,29,500,1.0
capa,99.64539007,31.130132,47,537,1.0
sufrido,99.79123,31.123634000000006,66,850,1.0
palestina,98.36066,31.091142,61,921,1.0
toro,99.67532,31.074896000000006,75,635,1.0
disponible,99.69879518,31.058651,68,575,1.0
bar,99.69135802,31.042405,74,718,1.0
fundamento,98.64864865,31.003415000000004,20,917,1.0
descubrir,99.36908517,30.977422,47,755,1.0
dignidad,99.42028986,30.974173,87,598,1.0
ánimo,98.94736842,30.961176,75,922,1.0
estancia,99.0625,30.892944,37,1146,1.0
ciertamente,98.10126582,30.883196,45,770,1.0
caracas,94.87179487,30.834459000000006,43,572,1.0
ficción,99.01960784,30.788971000000004,77,710,1.0
gil,66.56976744,30.779223,77,1178,0.0
profundidad,100.0,30.775974,88,1117,1.0
patrón,99.12023,30.727237,41,779,1.0
sal,98.64865,30.707742,19,836,1.0
cerrar,100.0,30.697995,28,604,1.0
sentado,100.0,30.681749,24,1940,1.0
japonés,99.36102236,30.672001,11,690,1.0
consumidor,99.58071279,30.655756,68,596,1.0
eje,99.12790698,30.646008,97,635,1.0
escritura,100.0,30.646008,89,787,1.0
reinado,99.70149,30.590773,7,498,1.0
chica,100.0,30.581025,27,719,1.0
cercano,98.87640449,30.555032,99,786,1.0
reflexión,98.79518,30.538786,15,417,1.0
competición,98.5915493,30.535537,55,595,1.0
uniforme,99.64664,30.532288,74,675,1.0
promedio,100.0,30.519291,9,784,1.0
puro,100.0,30.519291,51,874,1.0
cuento,99.65034965,30.480301,78,517,1.0
comuna,96.1414791,30.44781,6,856,1.0
roca,99.32886,30.395823,60,575,1.0
reparto,99.04762,30.363332,2,1123,1.0
dictadura,99.33774834,30.356834000000006,97,3636,1.0
pantalla,99.39577,30.33084,42,622,1.0
futura,99.03536977,30.311345000000006,19,709,1.0
adopción,99.36102236,30.311345000000006,94,695,1.0
lanza,99.19137466,30.285352000000003,87,662,1.0
nieve,100.0,30.272356,31,788,1.0
hielo,99.3220339,30.200874,20,552,1.0
cincuenta,99.32659933,30.181379,69,665,1.0
bronce,99.06542056,30.158635,57,950,1.0
humor,98.7012987,30.155386,15,622,1.0
dinastía,98.68852459,30.145639000000006,84,1098,1.0
descanso,99.20844327,30.116396,64,1665,1.0
considerable,97.70491803,30.116396,59,576,1.0
densidad,99.13043478,30.057912,65,503,1.0
poderoso,100.0,30.022171000000004,72,3403,1.0
calendario,99.00990099,30.012423,77,1626,1.0
combinación,98.89298893,29.992929,64,2029,1.0
malo,98.74100719,29.989679,72,1116,1.0
chino,99.62546816,29.983181,83,635,1.0
patio,99.6633,29.970184000000003,27,520,1.0
asumir,99.6969697,29.963686,22,2639,1.0
brasileño,98.83495146,29.953939,83,857,1.0
pico,98.64865,29.9117,68,532,1.0
odio,99.68944,29.898703,36,1185,1.0
guerrero,99.60474308,29.875959,60,1139,1.0
consulta,99.64412811,29.830471000000006,51,601,1.0
formato,99.01315789,29.820723,35,615,1.0
modificación,99.46381,29.820723,3,931,1.0
presa,99.64664,29.810976,78,770,1.0
ópera,99.43182,29.729747,82,517,1.0
cero,99.37888199,29.723249,54,679,1.0
prevención,99.33555,29.661515,12,714,1.0
imaginación,99.3006993,29.616027000000006,32,851,1.0
definir,98.91598916,29.612778,20,932,1.0
ancho,99.32885906,29.593283000000003,67,751,1.0
apariencia,99.03225806,29.583535,65,757,1.0
vega,86.13861,29.583535,78,862,1.0
protesta,99.4382,29.577037,56,715,1.0
holanda,98.00569801,29.570539,76,555,1.0
guía,99.27272727,29.551044,88,756,1.0
fortaleza,99.4269341,29.512054,16,534,1.0
entero,99.31034483,29.502306,4,734,1.0
repente,79.60089,29.476313,72,3494,0.0
electrónico,99.68253968,29.469815000000004,21,1229,1.0
paseo,99.62335,29.466566,88,201,1.0
bomba,99.68051118,29.463317,28,649,1.0
iniciar,100.0,29.45032,88,72,1.0
alegre,100.0,29.443822,83,595,1.0
dama,100.0,29.437323,76,629,1.0
soldado,99.63636,29.382088,10,624,1.0
foro,98.36065574,29.378839000000006,28,1502,1.0
desempleo,98.78787879,29.29761,77,574,1.0
sello,98.62543,29.291112,45,550,1.0
desierto,99.64912281,29.200135,8,1402,1.0
aparato,99.29328622,29.180640000000004,37,857,1.0
laguna,99.09090909,29.170893,30,915,1.0
feria,98.42271293,29.161145,10,830,1.0
extraño,99.39393939,29.154647,76,1405,1.0
vigilancia,99.65157,29.151398,18,582,1.0
fija,97.19298246,29.141651,79,638,1.0
cura,99.5584989,29.131903,81,157,1.0
palma,99.39148,29.118906,88,872,1.0
monumento,97.8852,29.115657,34,634,1.0
examen,99.30555556,29.109159,24,3126,1.0
fría,99.13644214,29.10591,68,692,1.0
marqués,98.40256,29.099412,29,507,1.0
músico,99.6124,29.079917,71,641,1.0
solitario,100.0,29.073418,58,521,1.0
oscuridad,98.98305,29.073418,61,661,1.0
rango,98.70968,29.008435,97,681,1.0
protocolo,99.71182,28.979193,89,1094,1.0
corea,93.59430605,28.972695,29,541,1.0
remedio,100.0,28.943452,51,635,1.0
jurisdicción,97.82016349,28.923957,12,1326,1.0
ala,95.58232932,28.91421,76,1994,1.0
destinado,99.64412811,28.910961,23,593,1.0
adaptación,99.26199262,28.845978,58,1099,1.0
negativa,99.57806,28.832981,72,600,1.0
prohibición,99.0566,28.829732,42,682,1.0
estrecho,98.22485207,28.806988,40,1501,1.0
conexión,98.96193772,28.777745,96,765,1.0
parroquia,99.7076,28.7615,71,689,1.0
favorable,99.63369963,28.751752000000003,62,968,1.0
relato,99.66997,28.748503000000003,98,2333,1.0
disciplina,99.3883792,28.738756,67,1014,1.0
ejercer,100.0,28.735506,38,785,1.0
habilidad,100.0,28.657527,55,640,1.0
enfermo,99.35622318,28.651028000000004,12,722,1.0
borde,98.98580122,28.647779,15,645,1.0
sanidad,99.24528,28.647779,57,666,1.0
cardenal,99.04761905,28.634783,48,571,1.0
variable,98.88889,28.634783,63,686,1.0
arquitecto,99.00990099,28.621786,45,809,1.0
hermoso,98.4063745,28.612039000000006,69,742,1.0
sucedido,98.2,28.56655,43,1568,1.0
denuncia,99.01639344,28.53081,91,546,1.0
espacial,99.58677686,28.511315000000003,96,723,1.0
lector,99.61685824,28.426837,2,735,1.0
aparecer,99.69325153,28.394345,77,662,1.0
portugués,99.38776,28.381349,98,570,1.0
mencionar,99.69325,28.355356,88,629,1.0
facilidad,99.43502825,28.326113,3,876,1.0
prestar,98.36066,28.319615,49,747,1.0
difusión,98.84169884,28.303369,72,733,1.0
desconocido,99.36170213,28.254632,65,665,1.0
comprobar,99.13294798,28.228639,94,723,1.0
ocupar,99.64158,28.228639,4,754,1.0
imponer,98.69281046,28.196147,76,692,1.0
orgullo,99.6633,28.1864,6,754,1.0
amante,99.38461538,28.170154,42,742,1.0
augusto,89.51456311,28.114918,2,651,1.0
defensor,99.35897436,28.105171,49,554,1.0
rama,99.09256,28.105171,6,818,1.0
altitud,98.5915493,28.059683000000003,37,575,1.0
destacado,99.31972789,28.017444,13,892,1.0
vender,98.1982,28.017444,91,561,1.0
héroe,98.70550162,27.971956,96,1095,1.0
mariano,96.42857,27.910222,3,1715,1.0
baloncesto,99.65753425,27.861484,57,960,1.0
aventura,99.32885906,27.832242,58,968,1.0
aldea,99.66329966,27.828993,73,485,1.0
baile,99.35897436,27.773757,91,451,1.0
concluir,99.32659933,27.731518,31,17,0.0
latín,99.375,27.702276,16,823,1.0
detalle,99.63167587,27.695778000000004,23,1069,1.0
senador,99.31034,27.689279,30,1604,1.0
aérea,99.29078014,27.673033,90,688,1.0
grito,98.79032258,27.640542,22,749,1.0
griega,98.99665552,27.604801,47,783,1.0
dormir,99.79035639,27.585306,27,766,1.0
talento,99.69789,27.578808,48,542,1.0
signo,99.23954,27.546317,42,1053,1.0
destruir,100.0,27.539818,46,616,1.0
fallo,99.29328622,27.491081,42,1385,1.0
titulado,99.35897,27.41635,61,870,1.0
solicitud,100.0,27.413101,17,1122,1.0
muro,99.69136,27.409852,70,576,1.0
tabaco,99.26471,27.393606,68,852,1.0
preparar,99.3921,27.393606,84,689,1.0
plataforma,100.0,27.377361,93,784,1.0
determinada,98.82697947,27.344869,9,1022,1.0
intensidad,99.41520468,27.312378,6,859,1.0
normativa,99.10979,27.296132,1,1501,1.0
ira,99.42028986,27.286384,76,826,1.0
afirmar,99.31972789,27.279886,9,923,1.0
azúcar,99.04397706,27.26364,87,497,1.0
orilla,100.0,27.26364,11,702,1.0
amiga,99.67213115,27.257142,26,1095,1.0
transmisión,99.69697,27.247394,90,712,1.0
subir,99.29577,27.237647,53,586,1.0
asilo,98.01980198,27.205156,40,918,1.0
evidencia,99.10979228,27.159667,65,1681,1.0
colombiano,99.36305732,27.156418,70,1037,1.0
teresa,94.89051,27.153169,23,1378,1.0
gravedad,99.69325153,27.14992,80,980,1.0
ingreso,99.37106918,27.127176,99,732,1.0
fomentar,99.3883792,27.104432,64,1078,1.0
organizado,99.63235,27.097933,58,674,1.0
usuario,99.80769,27.097933,38,771,1.0
instrucción,99.34065934,27.081688,15,784,1.0
ascenso,98.61111111,27.058944,56,558,1.0
orientación,98.8764,27.058944,54,670,1.0
detención,99.37888199,27.003708000000003,88,518,1.0
fotografía,99.25373134,27.003708000000003,68,790,1.0
muchacho,100.0,26.990711,81,675,1.0
techo,98.6014,26.984213,19,434,1.0
paisaje,99.36508,26.980964,28,1357,1.0
imperial,99.64157706,26.974466,27,599,1.0
columna,99.72826087,26.948472,56,557,1.0
permanecer,99.18256,26.938725,97,1104,1.0
tiro,98.85496,26.928978000000004,46,501,1.0
refleja,98.72611,26.915981,28,629,1.0
colectivo,99.41176471,26.899735,44,779,1.0
diablo,99.58246347,26.893237,27,1127,1.0
moreno,99.56897,26.870493,38,581,1.0
bloque,99.1202346,26.863994,87,821,1.0
vivos,99.65157,26.854247,42,730,1.0
valenciana,97.35849,26.808759,63,1027,1.0
enviar,100.0,26.786015000000006,50,638,1.0
pase,97.85714,26.763271000000003,17,1229,1.0
analizar,98.50187266,26.682042,39,622,1.0
ética,99.38080495,26.669045,80,840,1.0
parcial,99.66443,26.669045,89,524,1.0
quijote,98.4326,26.659298,62,791,1.0
representar,99.37695,26.659298,3,1638,1.0
cristiano,99.42638623,26.64955,24,756,1.0
referir,99.26471,26.64955,78,1278,1.0
alicante,94.28571429,26.639803000000004,66,2611,1.0
suspensión,98.6014,26.636554,62,782,1.0
moda,99.66216,26.597564,30,639,1.0
polvo,98.74214,26.571571,80,750,1.0
tragedia,99.32203,26.542328,21,746,1.0
rumbo,99.82906,26.53583,13,771,1.0
fiel,99.34065934,26.522833,28,904,1.0
garantía,99.29577465,26.500089000000006,34,594,1.0
tigre,99.35484,26.474096000000007,21,574,1.0
acero,98.99665552,26.454601,76,589,1.0
noruega,98.0226,26.415611,72,692,1.0
poema,99.37107,26.392867,91,808,1.0
formal,99.66666667,26.392867,6,1026,1.0
madrugada,99.36708861,26.386369,81,963,1.0
grabación,98.70550162,26.353877,81,469,1.0
lentamente,98.76923077,26.347379,31,670,1.0
equivalente,99.58419958,26.331133,3,198,0.0
emisión,99.38080495,26.321386,54,487,1.0
auto,98.65771812,26.314888,27,947,1.0
dirigir,98.75,26.30514,91,619,1.0
candidatura,99.67741935,26.30514,3,687,1.0
visitar,98.6711,26.301891,58,145,1.0
desaparición,99.62825279,26.298642,9,803,1.0
embajador,99.67948718,26.295393,21,720,1.0
espejo,99.4011976,26.272649,90,747,1.0
ceremonia,99.42084942,26.26615,43,779,1.0
confusión,99.3442623,26.233659000000007,19,1047,1.0
castigo,99.03536977,26.23041,75,875,1.0
tienda,99.36102,26.23041,37,624,1.0
paraguay,98.95833,26.220662,6,2032,1.0
cometido,100.0,26.217413,72,979,1.0
fabricación,97.9253112,26.201167,55,629,1.0
regulación,99.33775,26.184922,9,846,1.0
atmósfera,99.64664311,26.181672,72,581,1.0
continua,99.68454259,26.168676,27,866,1.0
enlace,99.63235294,26.15243,6,829,1.0
reloj,99.08592,26.145932,24,777,1.0
procedente,99.68354,26.041959,97,580,1.0
misterio,100.0,26.041959,92,596,1.0
herido,99.17695473,26.025713,4,803,1.0
rapidez,99.36306,26.015966,79,846,1.0
combustible,99.41176471,25.96073,90,629,1.0
ensayo,99.70501475,25.928238,76,563,1.0
gris,99.62049336,25.924989,87,982,1.0
creador,99.31972789,25.918491,1,1280,1.0
entusiasmo,99.62406015,25.908744,61,947,1.0
coro,98.61111111,25.895747,88,590,1.0
turno,100.0,25.869754,26,833,1.0
océano,98.13665,25.869754,67,451,1.0
legislativo,99.69040248,25.860006,45,884,1.0
ingeniero,99.35064935,25.856757,44,715,1.0
presidencial,99.05956,25.827515,87,522,1.0
americana,99.04458599,25.821016,44,967,1.0
drama,98.89502762,25.788525,77,507,1.0
maíz,99.35483871,25.778777,67,870,1.0
urbana,98.63014,25.756033,84,719,1.0
estudiante,100.0,25.746286,11,1411,1.0
convento,98.81656805,25.720293,57,1028,1.0
filósofo,99.79591837,25.707296,66,617,1.0
cristal,100.0,25.697549,50,847,1.0
andar,99.29873773,25.661808,93,885,1.0
cantar,99.67320261,25.639064,12,907,1.0
finalidad,98.81656805,25.639064,74,1045,1.0
popularidad,99.35691,25.635815,63,756,1.0
estrecha,98.58585859,25.632566,25,1216,1.0
déficit,97.53521127,25.609822,96,822,1.0
innovación,99.10447761,25.603323,17,818,1.0
atlántico,99.09255898,25.570832,34,695,1.0
romper,98.77676,25.557835,47,829,1.0
incendio,99.71014493,25.479855,52,729,1.0
ermita,86.13138686,25.476606,68,1268,1.0
correo,99.03846154,25.476606,94,595,1.0
siria,93.22034,25.444115,12,1442,1.0
concesión,99.26199262,25.440866,61,1195,1.0
proporción,99.38838,25.431118,86,1237,1.0
aceite,99.40652819,25.427869,55,786,1.0
mostrado,97.53425,25.42462,89,1016,1.0
policial,98.74608,25.411623,3,1425,1.0
sexto,99.42693,25.38563,9,780,1.0
arroyo,98.04469274,25.38563,80,642,1.0
hoja,98.64498645,25.362886,13,1019,1.0
previamente,99.68847,25.356388,68,1008,1.0
correcto,99.67532468,25.323896,63,703,1.0
anoche,98.44720497,25.304401,87,680,1.0
anuncio,99.40828402,25.304401,0,2304,1.0
preparado,99.27667,25.288155,54,629,1.0
perfecto,99.62825,25.275159,24,699,1.0
femenino,99.42857143,25.262162,76,528,1.0
cuesta,97.70114943,25.255664000000003,74,651,1.0
gabinete,98.67109635,25.226422,39,817,1.0
vitoria,66.10738,25.219923,32,790,1.0
retorno,99.33775,25.213425,26,1036,1.0
seguimiento,98.97611,25.167937,86,778,1.0
viajar,99.37304,25.151691,80,730,1.0
elaborado,99.13793103,25.151691,55,1551,1.0
esposo,99.31034483,25.145193,72,537,1.0
adicional,99.58847737,25.125698,52,726,1.0
meta,99.62963,25.099705,83,595,1.0
henry,31.79012346,25.093206,15,1029,0.0
proporcionar,98.9726,25.070462,69,808,1.0
examinar,99.69512195,25.050967,3,674,1.0
mamá,100.0,25.024974,95,610,1.0
singular,98.98167,24.998981,94,4872,1.0
suave,99.01639,24.933998000000006,90,834,1.0
plantilla,99.11972,24.875513,93,770,1.0
huir,96.38157895,24.826776,58,722,1.0
panamá,98.61111,24.81053,19,814,1.0
silla,99.25094,24.804032,23,660,1.0
aprobar,99.33554817,24.804032,89,669,1.0
tumba,98.77301,24.797533,27,791,1.0
escándalo,99.67213115,24.781288,79,965,1.0
electricidad,98.75,24.768291,43,567,1.0
sonora,98.5348,24.761793,33,543,1.0
profesión,99.64029,24.752045000000006,72,700,1.0
horizonte,99.38080495,24.745547,22,1551,1.0
toca,97.94521,24.709806,56,1010,1.0
paro,98.30508,24.680564,44,871,1.0
sabiduría,99.62963,24.674066,71,540,1.0
fomento,98.125,24.625328,81,1259,1.0
izquierdo,98.72204473,24.609082,47,502,1.0
testigo,100.0,24.596086,87,604,1.0
secundaria,99.33333,24.596086,23,763,1.0
alar,68.70748299,24.563594,83,1015,1.0
escasa,96.78571429,24.518106,85,780,1.0
explosión,98.87640449,24.485615,41,571,1.0
rendimiento,99.29577,24.46612,16,789,1.0
ligero,98.14126394,24.446625,15,544,1.0
antigüedad,99.65986395,24.430379,27,718,1.0
natal,98.25581,24.420632,29,1120,1.0
domicilio,99.70674487,24.404386,61,612,1.0
merced,99.66216,24.384891,54,725,1.0
genio,99.375,24.381642000000006,37,495,1.0
elaborar,99.62962963,24.375144,30,604,1.0
manga,99.61832,24.371894,16,683,1.0
polémica,98.79518,24.371894,20,678,1.0
abuelo,99.68253968,24.365396,66,661,1.0
man,31.13636,24.362147,29,1679,0.0
conservar,100.0,24.362147,91,670,1.0
estima,98.86792453,24.34915,69,710,1.0
nacionalista,100.0,24.332905,76,811,1.0
ganador,99.45652174,24.326406,34,775,1.0
relieve,97.65101,24.323157,14,744,1.0
emergencia,99.69325153,24.303662,64,867,1.0
aniversario,99.53810624,24.284167,94,649,1.0
modificar,98.61592,24.277669,86,127,0.0
móvil,99.8,24.261423,75,508,1.0
catalina,95.83333333,24.248427,22,592,1.0
circuito,99.13043478,24.248427,83,723,1.0
casado,99.52718676,24.241928,33,626,1.0
ucrania,98.75776,24.228932,99,750,1.0
olor,99.45946,24.219184,95,824,1.0
organizar,98.13433,24.215935,37,764,1.0
respaldo,99.66667,24.212686,15,974,1.0
sustancia,98.74477,24.19644,66,633,1.0
felicitar,98.91696751,24.150952,36,1305,1.0
sancho,85.53846,24.147703,45,696,1.0
sumamente,98.70968,24.102215,25,716,1.0
alimentación,99.6350365,24.092467000000006,18,1099,1.0
chilena,97.72727273,24.08272,26,827,1.0
adquirir,99.70501475,24.076221,39,578,1.0
locura,100.0,24.046979,77,565,1.0
esfera,98.66666667,24.027484,49,766,1.0
fraude,99.0228013,24.017737,93,669,1.0
señorita,100.0,24.011238,10,622,1.0
mínima,99.10979,24.00474,15,738,1.0
pro,92.72031,23.991743,43,562,1.0
referéndum,94.28571,23.985245000000006,89,2202,1.0
respetar,100.0,23.975498,95,779,1.0
cinta,99.35275081,23.972249,13,1125,1.0
caribe,98.68421053,23.962501,95,647,1.0
cálculo,99.44903581,23.956003,86,695,1.0
seco,99.21875,23.936508,54,978,1.0
mérito,99.09366,23.936508,60,680,1.0
lanzar,99.09638554,23.89102,48,621,1.0
discografía,99.38080495,23.874774,48,637,1.0
serbia,94.89489,23.865027,75,770,1.0
magnitud,99.67741935,23.861777,38,921,1.0
bahía,98.07692308,23.848781,9,838,1.0
ampliar,99.05063291,23.842282,45,677,1.0
mapa,99.78308,23.81304,17,693,1.0
primo,98.7976,23.809791,26,580,1.0
acta,99.0228013,23.793545,48,883,1.0
cuarenta,100.0,23.767552,85,939,1.0
afrontar,99.29824561,23.73831,90,621,1.0
grabado,99.62962963,23.73506,21,635,1.0
acá,92.0,23.731811,36,524,1.0
galería,99.39393939,23.725313,39,881,1.0
florida,99.3220339,23.722064000000003,78,642,1.0
aprendizaje,98.85496183,23.718815,21,646,1.0
anillo,99.6875,23.692821,9,667,1.0
guión,99.31972789,23.62134,35,746,1.0
climático,99.25650558,23.585599,60,567,1.0
provisional,98.98649,23.58235,6,1063,1.0
inteligente,100.0,23.549859,95,707,1.0
ilusión,100.0,23.54661,38,521,1.0
venganza,98.00664,23.536862,74,585,1.0
soporte,98.76923,23.497872,90,2120,1.0
vigente,98.94737,23.494623,46,653,1.0
estándar,99.2248062,23.478377,65,687,1.0
comentario,100.0,23.46863,71,1074,1.0
catalana,96.57320872,23.462132,87,684,1.0
frecuente,99.62546816,23.42964,24,917,1.0
vano,95.88235,23.39065,19,813,1.0
vergüenza,99.11243,23.380903,18,669,1.0
mata,98.96552,23.371155,39,717,1.0
subida,98.33333,23.367906,21,687,1.0
percepción,98.4375,23.348411,56,695,1.0
utilidad,99.06832,23.348411,29,852,1.0
oración,100.0,23.345162,24,609,1.0
pendiente,99.71591,23.341913,69,1003,1.0
mortal,99.36709,23.319169,37,964,1.0
primaria,100.0,23.309421,0,2011,1.0
pastor,99.8008,23.286677,26,734,1.0
misa,98.52399,23.286677,27,590,1.0
vídeo,97.53086,23.280179,5,826,1.0
eliminación,99.70760234,23.263933,1,1004,1.0
ama,98.33333333,23.260684,80,755,1.0
mecánica,99.68153,23.241189,72,438,1.0
poblado,100.0,23.231442,62,680,1.0
sucesión,99.01639,23.205449,65,741,1.0
ministra,96.85535,23.202199,17,816,1.0
divino,100.0,23.202199,12,671,1.0
parcialmente,99.59514,23.156711,43,831,1.0
atacar,100.0,23.143715,12,546,1.0
amarillo,98.73684211,23.143715,5,521,1.0
curiosidad,99.70326409,23.140465,93,655,1.0
disponer,99.61538462,23.137216,9,907,1.0
cadáver,99.02912621,23.127469,13,1650,1.0
historiador,99.38461538,23.104725,98,623,1.0
cubierto,99.68253968,23.094977,70,493,1.0
cementerio,100.0,23.094977,37,947,1.0
razonable,98.79518,23.081981,18,563,1.0
tomo,98.54651,23.075482,11,1154,1.0
exceso,99.25925926,23.062486,39,772,1.0
prima,99.69789,23.062486,34,614,1.0
gigante,99.58592133,23.04624,69,665,1.0
distinción,99.31972789,23.04624,64,911,1.0
canciller,97.90940767,23.023496,34,682,1.0
lord,63.003663,23.013749,66,2321,1.0
inútil,99.16317992,23.010499,93,673,1.0
urgencia,97.66537,23.000752,2,1002,1.0
rincón,98.96552,22.96826,5,3144,1.0
artístico,99.8,22.965011,52,614,1.0
evento,99.7983871,22.958513,40,779,1.0
trigo,99.02597,22.942267,7,515,1.0
urgente,99.24812,22.93252,41,695,1.0
levantar,99.68944099,22.913025,34,581,1.0
específico,100.0,22.896779,29,783,1.0
justamente,99.68553459,22.896779,14,2307,1.0
naval,98.14126,22.870786,18,600,1.0
disputa,99.25373134,22.870786,25,993,1.0
limitado,99.27797834,22.841543,16,1038,1.0
testimonio,99.67949,22.841543,77,601,1.0
continuidad,99.66887417,22.828547,41,857,1.0
instalación,98.29931973,22.799304,2,1656,1.0
casco,99.65635739,22.786308,87,712,1.0
ambiental,98.72611465,22.77656,25,738,1.0
judío,99.39637827,22.760315,55,683,1.0
escalera,99.27927928,22.750567,34,484,1.0
vencer,99.17582,22.750567,64,1031,1.0
milán,91.69329,22.744069,43,785,1.0
cubano,99.4011976,22.737571,99,678,1.0
peruano,99.80198,22.714826,51,820,1.0
marcado,98.92086,22.698581,19,670,1.0
arzobispo,95.59748428,22.679086,13,1019,1.0
bordo,83.15789474,22.679086,25,858,0.0
ligeramente,100.0,22.675837,69,683,1.0
abandonado,100.0,22.669338,77,1288,1.0
expediente,98.47560976,22.666089000000003,79,960,1.0
referente,99.66887,22.620601,22,605,1.0
sureste,98.24903,22.610854,92,3073,1.0
ubicación,99.13295,22.555618,50,1550,1.0
fiscalía,99.66216216,22.555618,54,615,1.0
bernardo,95.69536424,22.54912,69,972,1.0
ciudadanía,99.72299169,22.542621,84,952,1.0
sacrificio,99.63636,22.536123,5,1028,1.0
virus,99.36102,22.519877,14,614,1.0
incidente,99.63898917,22.513379,1,1825,1.0
proceder,99.09091,22.513379,95,708,1.0
conveniente,99.6124031,22.513379,72,1181,1.0
infierno,98.97610922,22.500382,50,614,1.0
célebre,98.91696751,22.474389,22,541,1.0
danza,99.64028777,22.454894,52,840,1.0
lujo,99.37888199,22.445147,98,851,1.0
intervenir,98.68421053,22.412655,18,644,1.0
margarita,99.69325,22.406157,97,833,1.0
selva,99.0099,22.383413,74,895,1.0
previo,99.31857,22.360669,34,496,1.0
récord,98.69376,22.360669,15,1634,1.0
considerando,99.00662252,22.35742,96,740,1.0
renuncia,99.09091,22.341174,61,668,1.0
prisa,99.63437,22.331426,97,600,1.0
tramo,96.97987,22.302184,96,782,1.0
patas,99.61686,22.263194,48,860,1.0
indicar,100.0,22.243699,80,1572,1.0
peligroso,99.08537,22.243699,41,539,1.0
delantero,99.44134078,22.24045,82,620,1.0
energética,99.69604863,22.24045,9,1631,1.0
tranquilo,99.10714,22.233952,89,762,1.0
rebelión,98.1203,22.194962,75,2414,1.0
alba,98.58156028,22.175467,67,631,1.0
autorización,99.68847352,22.175467,33,887,1.0
precisión,99.13043,22.16572,80,1058,1.0
valoración,99.23372,22.142976,28,967,1.0
medieval,98.36066,22.139726,46,1404,1.0
anciano,99.79879276,22.133228,48,791,1.0
desear,98.34437086,22.071494,3,1528,1.0
detener,99.65986395,22.058498,86,762,1.0
sucesor,99.27007,22.04875,40,856,1.0
incapaz,98.25174825,22.032504,81,693,1.0
pecado,99.63504,22.003262,51,771,1.0
exilio,96.28378378,21.996764,51,537,1.0
tesoro,100.0,21.993515,99,603,1.0
reto,97.83282,21.987016,67,707,1.0
águila,98.58356941,21.977269,18,722,1.0
estable,99.35275081,21.948026,49,844,1.0
balón,99.38650307,21.93503,59,729,1.0
negociar,100.0,21.918784,18,670,1.0
prestigio,98.58657,21.905787,47,603,1.0
muchacha,99.63899,21.905787,17,652,1.0
cuerda,99.61089494,21.879794,22,710,1.0
llave,99.38398357,21.866798,66,576,1.0
humo,99.06542056,21.850552,31,704,1.0
miseria,98.86364,21.81806,35,628,1.0
flujo,98.65319865,21.808313,68,683,1.0
continuo,98.9626556,21.795316,15,686,1.0
herencia,99.00332226,21.788818,44,698,1.0
demografía,97.77777778,21.785569,52,814,1.0
calma,99.60784314,21.762825,32,676,1.0
visible,99.63636,21.753077,97,1163,1.0
coruña,86.59420290000001,21.746579,22,693,1.0
magia,98.57819905,21.691343,45,745,1.0
monarca,99.41691,21.684845000000006,0,1176,1.0
bajar,99.67213115,21.671848,29,553,1.0
redacción,98.89299,21.671848,37,754,1.0
dependencia,100.0,21.66535,24,1298,1.0
laboratorio,100.0,21.629609,7,677,1.0
provocar,100.0,21.616613,92,882,1.0
funcionar,98.40764331,21.616613,83,320,0.0
recoger,100.0,21.610115,58,530,1.0
cerrada,99.80237154,21.577623000000006,49,981,1.0
oral,100.0,21.558128,74,515,1.0
obrero,98.63326,21.545132,72,693,1.0
finalizar,99.69604863,21.535384,40,1031,1.0
ginebra,98.86792453,21.522387,47,594,1.0
distinguir,99.01960784,21.51264,27,781,1.0
debut,93.75,21.502893,23,632,1.0
externo,98.8,21.486647,20,623,1.0
renovación,99.35065,21.457404,14,789,1.0
data,84.34163701,21.454155,0,3095,0.0
risa,98.96194,21.444408,66,522,1.0
identificar,99.04761905,21.43466,25,920,1.0
repetir,99.6988,21.392421,45,682,1.0
portuguesa,99.35897,21.382674,73,709,1.0
exigir,99.25093633,21.379425,20,475,1.0
llamamiento,93.10344828,21.363179,67,1759,1.0
guarda,99.3852459,21.35993,29,683,1.0
bello,98.75389408,21.356681,92,1122,1.0
armado,99.02152642,21.298196,63,607,1.0
emoción,98.99665552,21.294947,58,798,1.0
empresario,99.36102236,21.275452,96,777,1.0
sombrero,100.0,21.272203,22,634,1.0
navarro,95.08507,21.268954,75,745,1.0
propietario,100.0,21.229964,34,830,1.0
restauración,99.31973,21.223465,42,2007,1.0
cliente,99.66555184,21.220216,41,619,1.0
aviación,99.25650558,21.200721,64,844,1.0
alimento,98.7460815,21.151984,73,602,1.0
aceptación,98.77300613,21.148735,76,522,1.0
agradable,100.0,21.148735,15,836,1.0
juvenil,100.0,21.135738,20,845,1.0
persecución,98.23009,21.125991,7,719,1.0
prosperidad,100.0,21.087001,57,810,1.0
creencia,98.76160991,21.067506,10,925,1.0
silva,87.32394000000002,21.061008,36,926,1.0
generar,99.61685824,21.044762,52,814,1.0
cristianismo,98.6440678,21.025267000000003,29,834,1.0
golfo,98.45679012,21.022018,13,711,1.0
oreja,99.80545,21.01227,9,600,1.0
exportación,99.63898917,20.97653,38,615,1.0
publicar,98.71795,20.963533,42,2333,1.0
emplea,98.27586207,20.963533,19,712,1.0
flexibilidad,99.36102236,20.960284,41,557,1.0
terrestre,99.03475,20.950537,99,526,1.0
oveja,98.71795,20.924543,66,533,1.0
viuda,98.99666,20.914796,19,690,1.0
conducir,98.94366197,20.885554,58,590,1.0
conservador,99.65870307,20.830318,60,773,1.0
ideología,99.65277778,20.827069,40,610,1.0
piedad,98.75,20.82382,11,539,1.0
sesenta,98.11321,20.82382,58,989,1.0
onda,98.33333,20.817321,87,88,0.0
satisfecho,100.0,20.797826,6,836,1.0
promesa,99.66216,20.768584,63,1306,1.0
efectivo,99.63031423,20.765335,49,1025,1.0
mitología,99.29329,20.762086,61,858,1.0
probar,99.34641,20.752338,68,772,1.0
sabio,99.40358,20.742591,8,695,1.0
eco,99.28443649,20.739342,38,106,1.0
escocia,96.95945946,20.736092000000006,24,748,1.0
compartir,99.0228013,20.732843,3,718,1.0
literario,99.63369963,20.729594,47,4811,1.0
justa,99.17695473,20.70685,65,725,1.0
lógico,99.29577465,20.697103,76,665,1.0
ídem,89.28571429,20.684106,23,801,1.0
editor,99.39759036,20.671109,30,1118,1.0
poderosa,99.6633,20.661362,50,912,1.0
ave,98.45857418,20.63212,49,832,1.0
colonial,99.19517103,20.63212,20,661,1.0
suponer,100.0,20.615874,6,1042,1.0
echar,97.32441472,20.612625,90,2437,1.0
ocurrir,99.25373,20.602877,13,1202,1.0
informar,98.92473118,20.59313,57,541,1.0
documental,100.0,20.589881,9,1161,1.0
nacionalidad,99.71264,20.589881,87,718,1.0
reproducción,100.0,20.589881,5,1221,1.0
médica,97.27891,20.586631,85,502,1.0
ale,53.65384615,20.580133,67,1070,1.0
empresarial,99.669967,20.560638,88,1112,1.0
secretaría,99.68553,20.547642,21,662,1.0
vegetación,99.6732,20.541143,13,800,1.0
gallego,98.64603482,20.531396,48,974,1.0
afirmación,100.0,20.508652,53,622,1.0
recinto,97.84173,20.495655,59,613,1.0
guitarrista,99.79919679,20.492406,93,736,1.0
criminal,99.5584989,20.489157,65,653,1.0
plantear,98.42271,20.472911,20,1546,1.0
perfil,99.24528,20.469662,14,859,1.0
inspiración,99.00662252,20.469662,69,1058,1.0
cuartel,98.70967742,20.466413,35,984,1.0
pelea,99.60239,20.463164000000006,62,541,1.0
represión,99.01639,20.44042,48,848,1.0
saga,97.56944,20.407928,26,692,1.0
indio,99.04214559,20.407928,8,1277,1.0
vasca,90.8805,20.407928,28,1059,1.0
cordillera,98.70550162,20.404679,63,476,1.0
crecer,98.66666667,20.40143,39,926,1.0
desempeñar,100.0,20.394931,88,594,1.0
fauna,99.6875,20.388433,75,959,1.0
admiración,98.92857143,20.378686,8,751,1.0
cima,99.35064935,20.359191,34,730,1.0
eficiencia,99.05660377,20.355942,15,1611,1.0
preguntar,98.9547,20.352692,5,980,1.0
tristeza,98.40764,20.349443,18,278,0.0
eterno,99.00332226,20.339696,96,666,1.0
caballería,99.68652038,20.329948,26,2559,1.0
esquina,98.96907216,20.316952,24,898,1.0
parar,99.36909,20.316952,61,587,1.0
señalar,100.0,20.310453,7,588,1.0
abandono,99.65156794,20.287709,70,1028,1.0
nariz,98.45679,20.281211,95,820,1.0
inflación,98.05447471,20.277962,29,757,1.0
resultar,98.34983,20.258467,47,637,1.0
rigor,97.24771,20.251969,87,772,1.0
baño,99.33993399,20.24872,57,589,1.0
monta,96.27329,20.24872,6,667,1.0
tránsito,99.04459,20.235723,24,1085,1.0
recurrir,99.37888,20.225976,51,811,1.0
suceso,99.0099,20.212979,1,1776,1.0
definitivo,98.25072886,20.186986,37,923,1.0
automóvil,99.30795848,20.180487,33,591,1.0
fijar,99.33993399,20.173989,40,614,1.0
buque,98.20895522,20.167491,55,538,1.0
negativo,99.22027,20.160992,98,714,1.0
tormenta,100.0,20.160992,40,671,1.0
circular,98.97119342,20.160992,11,757,1.0
inclusión,98.81305638,20.154494,60,763,1.0
traer,99.01316,20.151245,71,643,1.0
herramienta,99.44444444,20.147996,26,593,1.0
sabor,99.35691,20.122003,15,518,1.0
peña,98.11321,20.112255,61,557,1.0
declarar,97.3880597,20.109006,80,1098,1.0
paciencia,100.0,20.105757,24,1075,1.0
temprano,99.42197,20.102508,5,760,1.0
nobleza,99.34426,20.096009,0,1030,1.0
minoría,98.62069,20.096009,67,644,1.0
abundante,99.40298507,20.086262,88,943,1.0
tribu,97.74436,20.050521,75,526,1.0
cariño,99.04458599,20.044023000000006,43,705,1.0
sensible,100.0,20.044023000000006,95,936,1.0
tranquilidad,99.69697,20.040774,57,694,1.0
mención,99.19028,20.031026,4,860,1.0
satisfacer,98.59649,20.024528,89,841,1.0
sensibilidad,99.31271,20.021279,29,504,1.0
trama,98.61592,20.021279,42,619,1.0
corredor,99.80544747,20.001784,61,879,1.0
dedo,98.69281046,19.992037,88,658,1.0
indias,100.0,19.988787,4,1787,1.0
digno,98.29931973,19.975791,47,21,1.0
ahorro,99.42084942,19.972542,88,511,1.0
liderazgo,99.04153355,19.956296,25,599,1.0
salvaje,99.04762,19.923804,48,725,1.0
vaticano,98.36957,19.904309,15,1156,1.0
asiento,99.06832298,19.891313,85,943,1.0
ortega,83.55263000000002,19.891313,61,846,1.0
romero,99.44341,19.878316,27,548,1.0
cubrir,99.27272727,19.871818,74,535,1.0
desaparecer,99.63369963,19.862070000000006,16,1015,1.0
expulsión,99.07692308,19.855572,37,503,1.0
suministro,98.96907,19.849074,89,657,1.0
asunción,96.01328904,19.845825,56,926,1.0
retrato,99.64158,19.836077,91,662,1.0
criatura,98.81305638,19.810084,43,1294,1.0
vela,99.31271,19.797087,17,980,1.0
perdón,100.0,19.761347,7,655,1.0
capitalista,99.62192817,19.74835,63,761,1.0
fuertemente,99.64285714,19.741852,26,547,1.0
síntesis,98.23944,19.712609,70,599,1.0
amparo,98.48024316,19.699613,5,1079,1.0
cruel,99.46236559,19.689865,67,675,1.0
básico,99.71346705,19.67037,3,693,1.0
asistir,97.47292419,19.644377,80,583,1.0
psicología,99.03226,19.644377,44,279,0.0
desastre,100.0,19.615135,95,1215,1.0
auténtico,100.0,19.553401,21,1062,1.0
ordenador,99.3311,19.543653,24,715,1.0
retirar,98.9899,19.540404,49,1417,1.0
acudir,99.38650307,19.537155,64,1903,1.0
incrementar,99.0228013,19.524159,72,860,1.0
agradecer,99.07120743,19.520909,41,618,1.0
republicano,99.03661,19.507913,18,707,1.0
